{
  "resourceType": "Bundle",
  "id": "heslinga-dan-bundle",
  "type": "transaction",
  "entry": [
    {
      "fullUrl": "http://example.com/fhir/Patient/heslinga-dan",
      "resource": {
        "resourceType": "Patient",
        "id": "heslinga-dan",
        "meta": {
          "profile": [
            "http://hl7.org/fhir/us/core/StructureDefinition/us-core-patient"
          ]
        },
        "extension": [
          {
            "url": "http://hl7.org/fhir/us/core/StructureDefinition/us-core-birthsex",
            "valueCode": "M"
          },
          {
            "url": "http://hl7.org/fhir/us/core/StructureDefinition/us-core-race",
            "extension": [
              {
                "url": "text",
                "valueString": "European"
              },
              {
                "url": "ombCategory",
                "valueCoding": {
                  "code": "2106-3",
                  "system": "urn:oid:2.16.840.1.113883.6.238",
                  "display": "White"
                }
              },
              {
                "url": "detailed",
                "valueCoding": {
                  "code": "2108-9",
                  "system": "urn:oid:2.16.840.1.113883.6.238",
                  "display": "European"
                }
              }
            ]
          },
          {
            "url": "http://hl7.org/fhir/us/core/StructureDefinition/us-core-ethnicity",
            "extension": [
              {
                "url": "text",
                "valueString": "Not Hispanic or Latino"
              },
              {
                "url": "ombCategory",
                "valueCoding": {
                  "code": "2186-5",
                  "system": "urn:oid:2.16.840.1.113883.6.238",
                  "display": "Not Hispanic or Latino"
                }
              }
            ]
          }
        ],
        "name": [
          {
            "use": "official",
            "given": [
              "Dan"
            ],
            "family": "Heslinga",
            "period": {
              "start": "1977-07-01"
            }
          },
          {
            "use": "old",
            "given": [
              "Dan D."
            ],
            "family": "Hesling",
            "period": {
              "start": "1953-06-05",
              "end": "1977-06-30"
            }
          }
        ],
        "gender": "male",
        "birthDate": "1953-06-05",
        "identifier": [
          {
            "system": "https://app.elationemr.com",
            "value": "16201950429185"
          }
        ],
        "address": [
          {
            "use": "home",
            "line": [
              "2386 Liloa Rise"
            ],
            "city": "Honolulu",
            "state": "HI",
            "postalCode": "96822-1953",
            "country": "USA"
          }
        ],
        "telecom": [
          {
            "use": "mobile",
            "system": "phone",
            "value": "808-729-1796"
          },
          {
            "use": "home",
            "system": "email",
            "value": "dan@heslinga.us"
          }
        ],
        "deceasedBoolean": false
      },
      "request": {
        "method": "POST",
        "url": "Patient"
      }
    },
    {
      "fullUrl": "http://example.com/fhir/AllergyIntolerance/heslinga-dan-allergy0",
      "resource": {
        "resourceType": "AllergyIntolerance",
        "id": "heslinga-dan-allergy0",
        "meta": {
          "profile": [
            "http://hl7.org/fhir/us/core/StructureDefinition/us-core-allergyintolerance"
          ]
        },
        "patient": {
          "reference": "Patient/heslinga-dan",
          "display": "Dan Heslinga"
        },
        "asserter": {
          "reference": "Patient/heslinga-dan",
          "display": "Dan Heslinga"
        },
        "verificationStatus": {
          "coding": [
            {
              "code": "confirmed",
              "system": "http://terminology.hl7.org/CodeSystem/allergyintolerance-verification"
            }
          ]
        },
        "clinicalStatus": {
          "coding": [
            {
              "code": "active",
              "system": "http://terminology.hl7.org/CodeSystem/allergyintolerance-clinical"
            }
          ]
        },
        "code": {
          "coding": [
            {
              "code": "716186003",
              "system": "http://snomed.info/sct",
              "display": "No known allergy (situation)"
            }
          ],
          "text": "No known allergy"
        },
        "note": [
          {
            "text": "Patient previously reported an episode of itchy skin that occured after eating crab at a restaurant in 2018. There was no visible rash and no trouble breathing. It could have been due to MSG. The incident has never recurred. "
          }
        ]
      },
      "request": {
        "method": "POST",
        "url": "AllergyIntolerance"
      }
    },
    {
      "fullUrl": "http://example.com/fhir/Condition/heslinga-dan-condition0",
      "resource": {
        "resourceType": "Condition",
        "id": "heslinga-dan-condition0",
        "meta": {
          "profile": [
            "http://hl7.org/fhir/us/example/StructureDefinition/heslinga-dan-conditions"
          ]
        },
        "category": [
          {
            "coding": [
              {
                "code": "problem-list-item",
                "system": "http://terminology.hl7.org/CodeSystem/condition-category"
              }
            ]
          }
        ],
        "subject": {
          "reference": "Patient/heslinga-dan",
          "display": "Dan Heslinga"
        },
        "clinicalStatus": {
          "coding": [
            {
              "code": "active",
              "system": "http://terminology.hl7.org/CodeSystem/condition-clinical"
            }
          ]
        },
        "verificationStatus": {
          "coding": [
            {
              "code": "confirmed",
              "system": "http://terminology.hl7.org/CodeSystem/condition-ver-status"
            }
          ]
        },
        "code": {
          "coding": [
            {
              "code": "H40.1290",
              "system": "http://hl7.org/fhir/sid/icd-10-cm",
              "display": "Low-tension glaucoma, unspecified eye, stage unspecified"
            }
          ]
        },
        "onsetDateTime": "2013-09-14"
      },
      "request": {
        "method": "POST",
        "url": "Condition"
      }
    },
    {
      "fullUrl": "http://example.com/fhir/Condition/heslinga-dan-condition1",
      "resource": {
        "resourceType": "Condition",
        "id": "heslinga-dan-condition1",
        "meta": {
          "profile": [
            "http://hl7.org/fhir/us/example/StructureDefinition/heslinga-dan-conditions"
          ]
        },
        "category": [
          {
            "coding": [
              {
                "code": "problem-list-item",
                "system": "http://terminology.hl7.org/CodeSystem/condition-category"
              }
            ]
          }
        ],
        "subject": {
          "reference": "Patient/heslinga-dan",
          "display": "Dan Heslinga"
        },
        "clinicalStatus": {
          "coding": [
            {
              "code": "active",
              "system": "http://terminology.hl7.org/CodeSystem/condition-clinical"
            }
          ]
        },
        "verificationStatus": {
          "coding": [
            {
              "code": "confirmed",
              "system": "http://terminology.hl7.org/CodeSystem/condition-ver-status"
            }
          ]
        },
        "code": {
          "coding": [
            {
              "code": "Z86.010",
              "system": "http://hl7.org/fhir/sid/icd-10-cm",
              "display": "Personal history of colonic polyps"
            }
          ]
        },
        "onsetDateTime": "2011-07-12"
      },
      "request": {
        "method": "POST",
        "url": "Condition"
      }
    },
    {
      "fullUrl": "http://example.com/fhir/Condition/heslinga-dan-condition2",
      "resource": {
        "resourceType": "Condition",
        "id": "heslinga-dan-condition2",
        "meta": {
          "profile": [
            "http://hl7.org/fhir/us/example/StructureDefinition/heslinga-dan-conditions"
          ]
        },
        "category": [
          {
            "coding": [
              {
                "code": "problem-list-item",
                "system": "http://terminology.hl7.org/CodeSystem/condition-category"
              }
            ]
          }
        ],
        "subject": {
          "reference": "Patient/heslinga-dan",
          "display": "Dan Heslinga"
        },
        "clinicalStatus": {
          "coding": [
            {
              "code": "active",
              "system": "http://terminology.hl7.org/CodeSystem/condition-clinical"
            }
          ]
        },
        "verificationStatus": {
          "coding": [
            {
              "code": "confirmed",
              "system": "http://terminology.hl7.org/CodeSystem/condition-ver-status"
            }
          ]
        },
        "code": {
          "coding": [
            {
              "code": "28412004",
              "system": "http://snomed.info/sct",
              "display": "Nonfamilial multiple polyposis syndrome (disorder)"
            }
          ]
        },
        "onsetDateTime": "2019-07-23"
      },
      "request": {
        "method": "POST",
        "url": "Condition"
      }
    },
    {
      "fullUrl": "http://example.com/fhir/Condition/heslinga-dan-cv-risk0",
      "resource": {
        "resourceType": "Observation",
        "id": "heslinga-dan-cv-risk0",
        "subject": {
          "reference": "Patient/heslinga-dan",
          "display": "Dan Heslinga"
        },
        "status": "final",
        "code": {
          "coding": [
            {
              "code": "79423-0",
              "system": "http://loinc.org",
              "display": "Cardiovascular disease 10Y risk [Likelihood] ACC-AHA Pooled Cohort by Goff 2013"
            }
          ]
        },
        "effectiveDateTime": "2017-11-20",
        "valueQuantity": {
          "value": 11.66,
          "code": "%",
          "system": "http://unitsofmeasure.org",
          "unit": "%"
        }
      },
      "request": {
        "method": "POST",
        "url": "Condition"
      }
    },
    {
      "fullUrl": "http://example.com/fhir/Condition/heslinga-dan-family-history0",
      "resource": {
        "resourceType": "FamilyMemberHistory",
        "id": "heslinga-dan-family-history0",
        "status": "completed",
        "patient": {
          "reference": "Patient/heslinga-dan",
          "display": "Dan Heslinga"
        },
        "relationship": {
          "coding": [
            {
              "code": "BRO",
              "system": "http://terminology.hl7.org/CodeSystem/v3-RoleCode",
              "display": "brother"
            }
          ]
        },
        "condition": [
          {
            "code": {
              "coding": [
                {
                  "code": "C61",
                  "system": "http://hl7.org/fhir/sid/icd-10-cm",
                  "display": "Malignant neoplasm of prostate"
                }
              ]
            },
            "outcome": {
              "coding": [
                {
                  "code": "103338009",
                  "system": "http://snomed.info/sct",
                  "display": "In full remission (qualifier value)"
                }
              ]
            }
          },
          {
            "code": {
              "coding": [
                {
                  "code": "C7A.8",
                  "system": "http://hl7.org/fhir/sid/icd-10-cm",
                  "display": "Other malignant neuroendocrine tumors"
                }
              ]
            },
            "outcome": {
              "coding": [
                {
                  "code": "103338009",
                  "system": "http://snomed.info/sct",
                  "display": "In full remission (qualifier value)"
                }
              ]
            }
          }
        ],
        "date": "2022-11-07"
      },
      "request": {
        "method": "POST",
        "url": "Condition"
      }
    },
    {
      "fullUrl": "http://example.com/fhir/Immunization/heslinga-dan-immunization0",
      "resource": {
        "resourceType": "Immunization",
        "id": "heslinga-dan-immunization0",
        "meta": {
          "profile": [
            "http://hl7.org/fhir/us/example/StructureDefinition/heslinga-dan-immunizations"
          ]
        },
        "status": "completed",
        "patient": {
          "reference": "Patient/heslinga-dan",
          "display": "Dan Heslinga"
        },
        "vaccineCode": {
          "coding": [
            {
              "code": "208",
              "system": "http://hl7.org/fhir/sid/cvx",
              "display": "COVID-19, mRNA, LNP-S, PF, 30 mcg/0.3 mL dose"
            }
          ],
          "text": "COVID-19, mRNA, LNP-S, PF, 30 mcg/0.3 mL dose"
        },
        "occurrenceDateTime": "2021-01-20",
        "performer": [
          {
            "function": {
              "coding": [
                {
                  "code": "AP",
                  "system": "http://terminology.hl7.org/CodeSystem/v2-0443",
                  "display": "Administering Provider"
                }
              ]
            },
            "actor": {
              "reference": "Organization/straub-clinic"
            }
          }
        ],
        "primarySource": false,
        "note": [
          {
            "text": "Administered at Pier across from federal building by Straub"
          }
        ]
      },
      "request": {
        "method": "POST",
        "url": "Immunization"
      }
    },
    {
      "fullUrl": "http://example.com/fhir/Immunization/heslinga-dan-immunization1",
      "resource": {
        "resourceType": "Immunization",
        "id": "heslinga-dan-immunization1",
        "meta": {
          "profile": [
            "http://hl7.org/fhir/us/example/StructureDefinition/heslinga-dan-immunizations"
          ]
        },
        "status": "completed",
        "patient": {
          "reference": "Patient/heslinga-dan",
          "display": "Dan Heslinga"
        },
        "vaccineCode": {
          "coding": [
            {
              "code": "208",
              "system": "http://hl7.org/fhir/sid/cvx",
              "display": "COVID-19, mRNA, LNP-S, PF, 30 mcg/0.3 mL dose"
            }
          ],
          "text": "COVID-19, mRNA, LNP-S, PF, 30 mcg/0.3 mL dose"
        },
        "occurrenceDateTime": "2021-02-11",
        "performer": [
          {
            "function": {
              "coding": [
                {
                  "code": "AP",
                  "system": "http://terminology.hl7.org/CodeSystem/v2-0443",
                  "display": "Administering Provider"
                }
              ]
            },
            "actor": {
              "reference": "Organization/straub-clinic"
            }
          }
        ],
        "primarySource": false,
        "note": [
          {
            "text": "Administered at Pier across from federal building by Straub"
          }
        ]
      },
      "request": {
        "method": "POST",
        "url": "Immunization"
      }
    },
    {
      "fullUrl": "http://example.com/fhir/Immunization/heslinga-dan-immunization2",
      "resource": {
        "resourceType": "Immunization",
        "id": "heslinga-dan-immunization2",
        "meta": {
          "profile": [
            "http://hl7.org/fhir/us/example/StructureDefinition/heslinga-dan-immunizations"
          ]
        },
        "status": "completed",
        "patient": {
          "reference": "Patient/heslinga-dan",
          "display": "Dan Heslinga"
        },
        "vaccineCode": {
          "coding": [
            {
              "code": "208",
              "system": "http://hl7.org/fhir/sid/cvx",
              "display": "COVID-19, mRNA, LNP-S, PF, 30 mcg/0.3 mL dose"
            }
          ],
          "text": "COVID-19, mRNA, LNP-S, PF, 30 mcg/0.3 mL dose"
        },
        "occurrenceDateTime": "2021-10-20",
        "performer": [
          {
            "function": {
              "coding": [
                {
                  "code": "AP",
                  "system": "http://terminology.hl7.org/CodeSystem/v2-0443",
                  "display": "Administering Provider"
                }
              ]
            },
            "actor": {
              "reference": "Organization/walgreens-beretania"
            }
          }
        ],
        "primarySource": false,
        "note": [
          {
            "text": "Administered by Walgreens Beretania"
          }
        ]
      },
      "request": {
        "method": "POST",
        "url": "Immunization"
      }
    },
    {
      "fullUrl": "http://example.com/fhir/Immunization/heslinga-dan-immunization3",
      "resource": {
        "resourceType": "Immunization",
        "id": "heslinga-dan-immunization3",
        "meta": {
          "profile": [
            "http://hl7.org/fhir/us/example/StructureDefinition/heslinga-dan-immunizations"
          ]
        },
        "status": "completed",
        "patient": {
          "reference": "Patient/heslinga-dan",
          "display": "Dan Heslinga"
        },
        "vaccineCode": {
          "coding": [
            {
              "code": "208",
              "system": "http://hl7.org/fhir/sid/cvx",
              "display": "COVID-19, mRNA, LNP-S, PF, 30 mcg/0.3 mL dose"
            }
          ],
          "text": "COVID-19, mRNA, LNP-S, PF, 30 mcg/0.3 mL dose"
        },
        "occurrenceDateTime": "2022-07-22",
        "performer": [
          {
            "function": {
              "coding": [
                {
                  "code": "AP",
                  "system": "http://terminology.hl7.org/CodeSystem/v2-0443",
                  "display": "Administering Provider"
                }
              ]
            },
            "actor": {
              "reference": "Organization/walgreens-beretania"
            }
          }
        ],
        "primarySource": false,
        "note": [
          {
            "text": "Administered by Walgreens Beretania"
          }
        ]
      },
      "request": {
        "method": "POST",
        "url": "Immunization"
      }
    },
    {
      "fullUrl": "http://example.com/fhir/Immunization/heslinga-dan-immunization4",
      "resource": {
        "resourceType": "Immunization",
        "id": "heslinga-dan-immunization4",
        "meta": {
          "profile": [
            "http://hl7.org/fhir/us/example/StructureDefinition/heslinga-dan-immunizations"
          ]
        },
        "status": "completed",
        "patient": {
          "reference": "Patient/heslinga-dan",
          "display": "Dan Heslinga"
        },
        "vaccineCode": {
          "coding": [
            {
              "code": "197",
              "system": "http://hl7.org/fhir/sid/cvx",
              "display": "influenza, high-dose seasonal, quadrivalent, .7mL dose, preservative free"
            }
          ],
          "text": "influenza, high-dose seasonal, quadrivalent, .7mL dose, preservative free"
        },
        "occurrenceDateTime": "2021-08-17",
        "performer": [
          {
            "function": {
              "coding": [
                {
                  "code": "AP",
                  "system": "http://terminology.hl7.org/CodeSystem/v2-0443",
                  "display": "Administering Provider"
                }
              ]
            },
            "actor": {
              "reference": "Organization/walgreens-beretania"
            }
          }
        ],
        "primarySource": false,
        "note": [
          {
            "text": "Administered at Walgreens Beretania"
          }
        ]
      },
      "request": {
        "method": "POST",
        "url": "Immunization"
      }
    },
    {
      "fullUrl": "http://example.com/fhir/Immunization/heslinga-dan-immunization5",
      "resource": {
        "resourceType": "Immunization",
        "id": "heslinga-dan-immunization5",
        "meta": {
          "profile": [
            "http://hl7.org/fhir/us/example/StructureDefinition/heslinga-dan-immunizations"
          ]
        },
        "status": "completed",
        "patient": {
          "reference": "Patient/heslinga-dan",
          "display": "Dan Heslinga"
        },
        "vaccineCode": {
          "coding": [
            {
              "code": "197",
              "system": "http://hl7.org/fhir/sid/cvx",
              "display": "influenza, high-dose seasonal, quadrivalent, .7mL dose, preservative free"
            }
          ],
          "text": "influenza, high-dose seasonal, quadrivalent, .7mL dose, preservative free"
        },
        "occurrenceDateTime": "2022-09-14",
        "performer": [
          {
            "function": {
              "coding": [
                {
                  "code": "AP",
                  "system": "http://terminology.hl7.org/CodeSystem/v2-0443",
                  "display": "Administering Provider"
                }
              ]
            },
            "actor": {
              "reference": "Organization/longs-manoa"
            }
          }
        ],
        "primarySource": false
      },
      "request": {
        "method": "POST",
        "url": "Immunization"
      }
    },
    {
      "fullUrl": "http://example.com/fhir/Immunization/heslinga-dan-immunization6",
      "resource": {
        "resourceType": "Immunization",
        "id": "heslinga-dan-immunization6",
        "meta": {
          "profile": [
            "http://hl7.org/fhir/us/example/StructureDefinition/heslinga-dan-immunizations"
          ]
        },
        "status": "completed",
        "patient": {
          "reference": "Patient/heslinga-dan",
          "display": "Dan Heslinga"
        },
        "vaccineCode": {
          "coding": [
            {
              "code": "33",
              "system": "http://hl7.org/fhir/sid/cvx",
              "display": "pneumococcal polysaccharide vaccine, 23 valent"
            }
          ],
          "text": "pneumococcal polysaccharide vaccine, 23 valent"
        },
        "occurrenceDateTime": "2021-08-18",
        "performer": [
          {
            "function": {
              "coding": [
                {
                  "code": "AP",
                  "system": "http://terminology.hl7.org/CodeSystem/v2-0443",
                  "display": "Administering Provider"
                }
              ]
            },
            "actor": {
              "reference": "Organization/walgreens-beretania"
            }
          }
        ],
        "primarySource": false
      },
      "request": {
        "method": "POST",
        "url": "Immunization"
      }
    },
    {
      "fullUrl": "http://example.com/fhir/Immunization/heslinga-dan-immunization7",
      "resource": {
        "resourceType": "Immunization",
        "id": "heslinga-dan-immunization7",
        "meta": {
          "profile": [
            "http://hl7.org/fhir/us/example/StructureDefinition/heslinga-dan-immunizations"
          ]
        },
        "status": "completed",
        "patient": {
          "reference": "Patient/heslinga-dan",
          "display": "Dan Heslinga"
        },
        "vaccineCode": {
          "coding": [
            {
              "code": "115",
              "system": "http://hl7.org/fhir/sid/cvx",
              "display": "tetanus toxoid, reduced diphtheria toxoid, and acellular pertussis vaccine, adsorbed"
            }
          ],
          "text": "tetanus toxoid, reduced diphtheria toxoid, and acellular pertussis vaccine, adsorbed"
        },
        "occurrenceDateTime": "2012-03-05",
        "primarySource": true
      },
      "request": {
        "method": "POST",
        "url": "Immunization"
      }
    },
    {
      "fullUrl": "http://example.com/fhir/Immunization/heslinga-dan-immunization8",
      "resource": {
        "resourceType": "Immunization",
        "id": "heslinga-dan-immunization8",
        "meta": {
          "profile": [
            "http://hl7.org/fhir/us/example/StructureDefinition/heslinga-dan-immunizations"
          ]
        },
        "status": "completed",
        "patient": {
          "reference": "Patient/heslinga-dan",
          "display": "Dan Heslinga"
        },
        "vaccineCode": {
          "coding": [
            {
              "code": "133",
              "system": "http://hl7.org/fhir/sid/cvx",
              "display": "pneumococcal conjugate vaccine, 13 valent"
            }
          ],
          "text": "pneumococcal conjugate vaccine, 13 valent"
        },
        "occurrenceDateTime": "2018-06-06",
        "performer": [
          {
            "function": {
              "coding": [
                {
                  "code": "AP",
                  "system": "http://terminology.hl7.org/CodeSystem/v2-0443",
                  "display": "Administering Provider"
                }
              ]
            },
            "actor": {
              "reference": "Organization/walgreens-beretania"
            }
          }
        ],
        "primarySource": false
      },
      "request": {
        "method": "POST",
        "url": "Immunization"
      }
    },
    {
      "fullUrl": "http://example.com/fhir/Immunization/heslinga-dan-immunization9",
      "resource": {
        "resourceType": "Immunization",
        "id": "heslinga-dan-immunization9",
        "meta": {
          "profile": [
            "http://hl7.org/fhir/us/example/StructureDefinition/heslinga-dan-immunizations"
          ]
        },
        "status": "completed",
        "patient": {
          "reference": "Patient/heslinga-dan",
          "display": "Dan Heslinga"
        },
        "vaccineCode": {
          "coding": [
            {
              "code": "03",
              "system": "http://hl7.org/fhir/sid/cvx",
              "display": "measles, mumps and rubella virus vaccine"
            }
          ],
          "text": "measles, mumps and rubella virus vaccine"
        },
        "occurrenceDateTime": "2011-04-15",
        "primarySource": false,
        "note": [
          {
            "text": "I didn't record who administered. It may have been Walgreens Kaneohe. "
          }
        ]
      },
      "request": {
        "method": "POST",
        "url": "Immunization"
      }
    },
    {
      "fullUrl": "http://example.com/fhir/Immunization/heslinga-dan-immunization10",
      "resource": {
        "resourceType": "Immunization",
        "id": "heslinga-dan-immunization10",
        "meta": {
          "profile": [
            "http://hl7.org/fhir/us/example/StructureDefinition/heslinga-dan-immunizations"
          ]
        },
        "status": "completed",
        "patient": {
          "reference": "Patient/heslinga-dan",
          "display": "Dan Heslinga"
        },
        "vaccineCode": {
          "coding": [
            {
              "code": "187",
              "system": "http://hl7.org/fhir/sid/cvx",
              "display": "zoster vaccine recombinant"
            }
          ],
          "text": "zoster vaccine recombinant"
        },
        "occurrenceDateTime": "2018-04-26",
        "performer": [
          {
            "function": {
              "coding": [
                {
                  "code": "AP",
                  "system": "http://terminology.hl7.org/CodeSystem/v2-0443",
                  "display": "Administering Provider"
                }
              ]
            },
            "actor": {
              "reference": "Organization/walgreens-kaneohe"
            }
          }
        ],
        "primarySource": false
      },
      "request": {
        "method": "POST",
        "url": "Immunization"
      }
    },
    {
      "fullUrl": "http://example.com/fhir/Immunization/heslinga-dan-immunization11",
      "resource": {
        "resourceType": "Immunization",
        "id": "heslinga-dan-immunization11",
        "meta": {
          "profile": [
            "http://hl7.org/fhir/us/example/StructureDefinition/heslinga-dan-immunizations"
          ]
        },
        "status": "completed",
        "patient": {
          "reference": "Patient/heslinga-dan",
          "display": "Dan Heslinga"
        },
        "vaccineCode": {
          "coding": [
            {
              "code": "187",
              "system": "http://hl7.org/fhir/sid/cvx",
              "display": "zoster vaccine recombinant"
            }
          ],
          "text": "zoster vaccine recombinant"
        },
        "occurrenceDateTime": "2019-05-15",
        "performer": [
          {
            "function": {
              "coding": [
                {
                  "code": "AP",
                  "system": "http://terminology.hl7.org/CodeSystem/v2-0443",
                  "display": "Administering Provider"
                }
              ]
            },
            "actor": {
              "reference": "Organization/walgreens-beretania"
            }
          }
        ],
        "primarySource": false
      },
      "request": {
        "method": "POST",
        "url": "Immunization"
      }
    },
    {
      "fullUrl": "http://example.com/fhir/Immunization/heslinga-dan-immunization12",
      "resource": {
        "resourceType": "Immunization",
        "id": "heslinga-dan-immunization12",
        "meta": {
          "profile": [
            "http://hl7.org/fhir/us/example/StructureDefinition/heslinga-dan-immunizations"
          ]
        },
        "status": "completed",
        "patient": {
          "reference": "Patient/heslinga-dan",
          "display": "Dan Heslinga"
        },
        "vaccineCode": {
          "coding": [
            {
              "code": "52",
              "system": "http://hl7.org/fhir/sid/cvx",
              "display": "hepatitis A vaccine, adult dosage"
            }
          ],
          "text": "hepatitis A vaccine, adult dosage"
        },
        "occurrenceDateTime": "2011-04-15",
        "primarySource": false
      },
      "request": {
        "method": "POST",
        "url": "Immunization"
      }
    },
    {
      "fullUrl": "http://example.com/fhir/Immunization/heslinga-dan-immunization13",
      "resource": {
        "resourceType": "Immunization",
        "id": "heslinga-dan-immunization13",
        "meta": {
          "profile": [
            "http://hl7.org/fhir/us/example/StructureDefinition/heslinga-dan-immunizations"
          ]
        },
        "status": "completed",
        "patient": {
          "reference": "Patient/heslinga-dan",
          "display": "Dan Heslinga"
        },
        "vaccineCode": {
          "coding": [
            {
              "code": "115",
              "system": "http://hl7.org/fhir/sid/cvx",
              "display": "tetanus toxoid, reduced diphtheria toxoid, and acellular pertussis vaccine, adsorbed"
            }
          ],
          "text": "tetanus toxoid, reduced diphtheria toxoid, and acellular pertussis vaccine, adsorbed"
        },
        "occurrenceDateTime": "2022-07-06",
        "performer": [
          {
            "function": {
              "coding": [
                {
                  "code": "AP",
                  "system": "http://terminology.hl7.org/CodeSystem/v2-0443",
                  "display": "Administering Provider"
                }
              ]
            },
            "actor": {
              "reference": "Organization/walgreens-beretania"
            }
          }
        ],
        "primarySource": false
      },
      "request": {
        "method": "POST",
        "url": "Immunization"
      }
    },
    {
      "fullUrl": "http://example.com/fhir/Immunization/heslinga-dan-immunization13",
      "resource": {
        "resourceType": "Immunization",
        "id": "heslinga-dan-immunization14",
        "meta": {
          "profile": [
            "http://hl7.org/fhir/us/example/StructureDefinition/heslinga-dan-immunizations"
          ]
        },
        "status": "completed",
        "patient": {
          "reference": "Patient/heslinga-dan",
          "display": "Dan Heslinga"
        },
        "vaccineCode": {
          "coding": [
            {
              "code": "205",
              "system": "http://hl7.org/fhir/sid/cvx",
              "display": "influenza, seasonal vaccine, quadrivalent, adjuvanted, 0.5mL dose, preservative free"
            }
          ],
          "text": "influenza, seasonal vaccine, quadrivalent, adjuvanted, 0.5mL dose, preservative free"
        },
        "occurrenceDateTime": "2023-09-05",
        "performer": [
          {
            "function": {
              "coding": [
                {
                  "code": "AP",
                  "system": "http://terminology.hl7.org/CodeSystem/v2-0443",
                  "display": "Administering Provider"
                }
              ]
            },
            "actor": {
              "reference": "Organization/longs-manoa"
            }
          }
        ],
        "primarySource": false
      },
      "request": {
        "method": "POST",
        "url": "Immunization"
      }
    },
    {
      "fullUrl": "http://example.com/fhir/Immunization/heslinga-dan-immunization13",
      "resource": {
        "resourceType": "Immunization",
        "id": "heslinga-dan-immunization15",
        "meta": {
          "profile": [
            "http://hl7.org/fhir/us/example/StructureDefinition/heslinga-dan-immunizations"
          ]
        },
        "status": "completed",
        "patient": {
          "reference": "Patient/heslinga-dan",
          "display": "Dan Heslinga"
        },
        "vaccineCode": {
          "coding": [
            {
              "code": "312",
              "system": "http://hl7.org/fhir/sid/cvx",
              "display": "SARS-COV-2 (COVID-19) vaccine, mRNA, spike protein, LNP, preservative free, 50 mcg/0.5 mL dose"
            }
          ],
          "text": "SARS-COV-2 (COVID-19) vaccine, mRNA, spike protein, LNP, preservative free, 50 mcg/0.5 mL dose"
        },
        "occurrenceDateTime": "2023-09-18",
        "performer": [
          {
            "function": {
              "coding": [
                {
                  "code": "AP",
                  "system": "http://terminology.hl7.org/CodeSystem/v2-0443",
                  "display": "Administering Provider"
                }
              ]
            },
            "actor": {
              "reference": "Organization/longs-manoa"
            }
          }
        ],
        "primarySource": false
      },
      "request": {
        "method": "POST",
        "url": "Immunization"
      }
    },
    {
      "fullUrl": "http://example.com/fhir/Immunization/heslinga-dan-immunization13",
      "resource": {
        "resourceType": "Immunization",
        "id": "heslinga-dan-immunization16",
        "meta": {
          "profile": [
            "http://hl7.org/fhir/us/example/StructureDefinition/heslinga-dan-immunizations"
          ]
        },
        "status": "completed",
        "patient": {
          "reference": "Patient/heslinga-dan",
          "display": "Dan Heslinga"
        },
        "vaccineCode": {
          "coding": [
            {
              "code": "303",
              "system": "http://hl7.org/fhir/sid/cvx",
              "display": "Respiratory syncytial virus (RSV), vaccine, recombinant, protein subunit RSV prefusion F, adjuvant reconstituted,.5 mL, preservative free "
            }
          ],
          "text": "Respiratory syncytial virus (RSV), vaccine, recombinant, protein subunit RSV prefusion F, adjuvant reconstituted, .5 mL, preservative free"
        },
        "occurrenceDateTime": "2023-11-13",
        "performer": [
          {
            "function": {
              "coding": [
                {
                  "code": "AP",
                  "system": "http://terminology.hl7.org/CodeSystem/v2-0443",
                  "display": "Administering Provider"
                }
              ]
            },
            "actor": {
              "reference": "Organization/longs-manoa"
            }
          }
        ],
        "primarySource": false
      },
      "request": {
        "method": "POST",
        "url": "Immunization"
      }
    },
    {
      "fullUrl": "http://example.com/fhir/Observation/heslinga-dan-lab0",
      "resource": {
        "resourceType": "Observation",
        "id": "heslinga-dan-lab0",
        "meta": {
          "profile": [
            "http://hl7.org/fhir/us/example/StructureDefinition/heslinga-dan-labs"
          ]
        },
        "status": "final",
        "category": [
          {
            "coding": [
              {
                "system": "http://terminology.hl7.org/CodeSystem/observation-category",
                "code": "laboratory"
              }
            ]
          }
        ],
        "subject": {
          "reference": "Patient/heslinga-dan",
          "display": "Dan Heslinga"
        },
        "code": {
          "coding": [
            {
              "code": "2093-3",
              "system": "http://loinc.org",
              "display": "Cholesterol [Mass/volume] in Serum or Plasma"
            }
          ]
        },
        "effectiveDateTime": "2017-11-20",
        "valueQuantity": {
          "value": 62,
          "code": "mg/dl",
          "system": "http://unitsofmeasure.org",
          "unit": "mg/dl"
        },
        "performer": [
          {
            "reference": "Organization/adventist-health-castle"
          }
        ]
      },
      "request": {
        "method": "POST",
        "url": "Observation"
      }
    },
    {
      "fullUrl": "http://example.com/fhir/Observation/heslinga-dan-lab1",
      "resource": {
        "resourceType": "Observation",
        "id": "heslinga-dan-lab1",
        "meta": {
          "profile": [
            "http://hl7.org/fhir/us/example/StructureDefinition/heslinga-dan-labs"
          ]
        },
        "status": "final",
        "category": [
          {
            "coding": [
              {
                "system": "http://terminology.hl7.org/CodeSystem/observation-category",
                "code": "laboratory"
              }
            ]
          }
        ],
        "subject": {
          "reference": "Patient/heslinga-dan",
          "display": "Dan Heslinga"
        },
        "code": {
          "coding": [
            {
              "code": "2085-9",
              "system": "http://loinc.org",
              "display": "Cholesterol in HDL [Mass/volume] in Serum or Plasma"
            }
          ]
        },
        "effectiveDateTime": "2017-11-20",
        "valueQuantity": {
          "value": 183,
          "code": "mg/dl",
          "system": "http://unitsofmeasure.org",
          "unit": "mg/dl"
        },
        "performer": [
          {
            "reference": "Organization/adventist-health-castle"
          }
        ]
      },
      "request": {
        "method": "POST",
        "url": "Observation"
      }
    },
    {
      "fullUrl": "http://example.com/fhir/Observation/heslinga-dan-lab2",
      "resource": {
        "resourceType": "Observation",
        "id": "heslinga-dan-lab2",
        "meta": {
          "profile": [
            "http://hl7.org/fhir/us/example/StructureDefinition/heslinga-dan-labs"
          ]
        },
        "status": "final",
        "category": [
          {
            "coding": [
              {
                "system": "http://terminology.hl7.org/CodeSystem/observation-category",
                "code": "laboratory"
              }
            ]
          }
        ],
        "subject": {
          "reference": "Patient/heslinga-dan",
          "display": "Dan Heslinga"
        },
        "code": {
          "coding": [
            {
              "code": "2857-1",
              "system": "http://loinc.org",
              "display": "Prostate specific Ag [Mass/volume] in Serum or Plasma"
            }
          ]
        },
        "effectiveDateTime": "2021-08-31",
        "valueQuantity": {
          "value": 0.9,
          "code": "ng/dL",
          "system": "http://unitsofmeasure.org",
          "unit": "ng/dL"
        },
        "performer": [
          {
            "reference": "Organization/clinical-labs-hawaii"
          }
        ]
      },
      "request": {
        "method": "POST",
        "url": "Observation"
      }
    },
    {
      "fullUrl": "http://example.com/fhir/Observation/heslinga-dan-lab3",
      "resource": {
        "resourceType": "Observation",
        "id": "heslinga-dan-lab3",
        "meta": {
          "profile": [
            "http://hl7.org/fhir/us/example/StructureDefinition/heslinga-dan-labs"
          ]
        },
        "status": "final",
        "category": [
          {
            "coding": [
              {
                "system": "http://terminology.hl7.org/CodeSystem/observation-category",
                "code": "laboratory"
              }
            ]
          }
        ],
        "subject": {
          "reference": "Patient/heslinga-dan",
          "display": "Dan Heslinga"
        },
        "code": {
          "coding": [
            {
              "code": "13457-7",
              "system": "http://loinc.org",
              "display": "Cholesterol in LDL [Mass/volume] in Serum or Plasma by calculation"
            }
          ]
        },
        "effectiveDateTime": "2013-01-04",
        "valueQuantity": {
          "value": 113,
          "code": "mg/dL",
          "system": "http://unitsofmeasure.org",
          "unit": "mg/dl"
        },
        "performer": [
          {
            "reference": "Organization/adventist-health-castle"
          }
        ]
      },
      "request": {
        "method": "POST",
        "url": "Observation"
      }
    },
    {
      "fullUrl": "http://example.com/fhir/Observation/heslinga-dan-lab4",
      "resource": {
        "resourceType": "Observation",
        "id": "heslinga-dan-lab4",
        "meta": {
          "profile": [
            "http://hl7.org/fhir/us/example/StructureDefinition/heslinga-dan-labs"
          ]
        },
        "status": "final",
        "category": [
          {
            "coding": [
              {
                "system": "http://terminology.hl7.org/CodeSystem/observation-category",
                "code": "laboratory"
              }
            ]
          }
        ],
        "subject": {
          "reference": "Patient/heslinga-dan",
          "display": "Dan Heslinga"
        },
        "code": {
          "coding": [
            {
              "code": "2091-7",
              "system": "http://loinc.org",
              "display": "Cholesterol in VLDL [Mass/volume] in Serum or Plasma"
            }
          ]
        },
        "effectiveDateTime": "2013-01-04",
        "valueQuantity": {
          "value": 11,
          "code": "mg/dL",
          "system": "http://unitsofmeasure.org",
          "unit": "mg/dl"
        },
        "performer": [
          {
            "reference": "Organization/adventist-health-castle"
          }
        ]
      },
      "request": {
        "method": "POST",
        "url": "Observation"
      }
    },
    {
      "fullUrl": "http://example.com/fhir/Observation/heslinga-dan-lab5",
      "resource": {
        "resourceType": "Observation",
        "id": "heslinga-dan-lab5",
        "meta": {
          "profile": [
            "http://hl7.org/fhir/us/example/StructureDefinition/heslinga-dan-labs"
          ]
        },
        "status": "final",
        "category": [
          {
            "coding": [
              {
                "system": "http://terminology.hl7.org/CodeSystem/observation-category",
                "code": "laboratory"
              }
            ]
          }
        ],
        "subject": {
          "reference": "Patient/heslinga-dan",
          "display": "Dan Heslinga"
        },
        "code": {
          "coding": [
            {
              "code": "2085-9",
              "system": "http://loinc.org",
              "display": "Cholesterol in HDL [Mass/volume] in Serum or Plasma"
            }
          ]
        },
        "effectiveDateTime": "2013-01-04",
        "valueQuantity": {
          "value": 62,
          "code": "mg/dL",
          "system": "http://unitsofmeasure.org",
          "unit": "mg/dl"
        },
        "performer": [
          {
            "reference": "Organization/adventist-health-castle"
          }
        ]
      },
      "request": {
        "method": "POST",
        "url": "Observation"
      }
    },
    {
      "fullUrl": "http://example.com/fhir/Observation/heslinga-dan-lab6",
      "resource": {
        "resourceType": "Observation",
        "id": "heslinga-dan-lab6",
        "meta": {
          "profile": [
            "http://hl7.org/fhir/us/example/StructureDefinition/heslinga-dan-labs"
          ]
        },
        "status": "final",
        "category": [
          {
            "coding": [
              {
                "system": "http://terminology.hl7.org/CodeSystem/observation-category",
                "code": "laboratory"
              }
            ]
          }
        ],
        "subject": {
          "reference": "Patient/heslinga-dan",
          "display": "Dan Heslinga"
        },
        "code": {
          "coding": [
            {
              "code": "2571-8",
              "system": "http://loinc.org",
              "display": "Triglyceride [Mass/volume] in Serum or Plasma"
            }
          ]
        },
        "effectiveDateTime": "2013-01-04",
        "valueQuantity": {
          "value": 56,
          "code": "mg/dL",
          "system": "http://unitsofmeasure.org",
          "unit": "mg/dl"
        },
        "performer": [
          {
            "reference": "Organization/adventist-health-castle"
          }
        ],
        "note": [
          {
            "text": "fasting"
          }
        ]
      },
      "request": {
        "method": "POST",
        "url": "Observation"
      }
    },
    {
      "fullUrl": "http://example.com/fhir/Observation/heslinga-dan-lab7",
      "resource": {
        "resourceType": "Observation",
        "id": "heslinga-dan-lab7",
        "meta": {
          "profile": [
            "http://hl7.org/fhir/us/example/StructureDefinition/heslinga-dan-labs"
          ]
        },
        "status": "final",
        "category": [
          {
            "coding": [
              {
                "system": "http://terminology.hl7.org/CodeSystem/observation-category",
                "code": "laboratory"
              }
            ]
          }
        ],
        "subject": {
          "reference": "Patient/heslinga-dan",
          "display": "Dan Heslinga"
        },
        "code": {
          "coding": [
            {
              "code": "2093-3",
              "system": "http://loinc.org",
              "display": "Cholesterol [Mass/volume] in Serum or Plasma"
            }
          ]
        },
        "effectiveDateTime": "2013-01-04",
        "valueQuantity": {
          "value": 186,
          "code": "mg/dL",
          "system": "http://unitsofmeasure.org",
          "unit": "mg/dl"
        },
        "performer": [
          {
            "reference": "Organization/adventist-health-castle",
            "display": "Adventist Health Castle"
          }
        ]
      },
      "request": {
        "method": "POST",
        "url": "Observation"
      }
    },
    {
      "fullUrl": "http://example.com/fhir/Observation/heslinga-dan-lab8",
      "resource": {
        "resourceType": "Observation",
        "id": "heslinga-dan-lab8",
        "meta": {
          "profile": [
            "http://hl7.org/fhir/us/example/StructureDefinition/heslinga-dan-labs"
          ]
        },
        "status": "final",
        "category": [
          {
            "coding": [
              {
                "system": "http://terminology.hl7.org/CodeSystem/observation-category",
                "code": "laboratory"
              }
            ]
          }
        ],
        "subject": {
          "reference": "Patient/heslinga-dan",
          "display": "Dan Heslinga"
        },
        "code": {
          "coding": [
            {
              "code": "1558-6",
              "system": "http://loinc.org",
              "display": "Fasting glucose [Mass/volume] in Serum or Plasma"
            }
          ]
        },
        "effectiveDateTime": "2013-01-04",
        "valueQuantity": {
          "value": 101,
          "code": "mg/dL",
          "system": "http://unitsofmeasure.org",
          "unit": "mg/dl"
        },
        "performer": [
          {
            "reference": "Organization/adventist-health-castle"
          }
        ]
      },
      "request": {
        "method": "POST",
        "url": "Observation"
      }
    },
    {
      "fullUrl": "http://example.com/fhir/Observation/heslinga-dan-lab9",
      "resource": {
        "resourceType": "Observation",
        "id": "heslinga-dan-lab9",
        "meta": {
          "profile": [
            "http://hl7.org/fhir/us/example/StructureDefinition/heslinga-dan-labs"
          ]
        },
        "status": "final",
        "category": [
          {
            "coding": [
              {
                "system": "http://terminology.hl7.org/CodeSystem/observation-category",
                "code": "laboratory"
              }
            ]
          }
        ],
        "subject": {
          "reference": "Patient/heslinga-dan",
          "display": "Dan Heslinga"
        },
        "code": {
          "coding": [
            {
              "code": "4548-4",
              "system": "http://loinc.org",
              "display": "Hemoglobin A1c/Hemoglobin.total in Blood"
            }
          ]
        },
        "effectiveDateTime": "2017-11-20",
        "valueQuantity": {
          "value": 5.7,
          "code": "%",
          "system": "http://unitsofmeasure.org",
          "unit": "%"
        },
        "performer": [
          {
            "reference": "Organization/adventist-health-castle"
          }
        ]
      },
      "request": {
        "method": "POST",
        "url": "Observation"
      }
    },
    {
      "fullUrl": "http://example.com/fhir/Observation/heslinga-dan-lab10",
      "resource": {
        "resourceType": "Observation",
        "id": "heslinga-dan-lab10",
        "meta": {
          "profile": [
            "http://hl7.org/fhir/us/example/StructureDefinition/heslinga-dan-labs"
          ]
        },
        "status": "final",
        "category": [
          {
            "coding": [
              {
                "system": "http://terminology.hl7.org/CodeSystem/observation-category",
                "code": "laboratory"
              }
            ]
          }
        ],
        "subject": {
          "reference": "Patient/heslinga-dan",
          "display": "Dan Heslinga"
        },
        "code": {
          "coding": [
            {
              "code": "16128-1",
              "system": "http://loinc.org",
              "display": "Hepatitis C virus Ab [Presence] in Serum"
            }
          ]
        },
        "effectiveDateTime": "2017-11-20",
        "valueCodeableConcept": {
          "coding": [
            {
              "code": "260385009",
              "system": "http://snomed.info/sct",
              "display": "Negative"
            }
          ]
        },
        "referenceRange": [
          {
            "text": "Negative"
          }
        ],
        "performer": [
          {
            "reference": "Organization/diagnostic-laboratory-services"
          }
        ]
      },
      "request": {
        "method": "POST",
        "url": "Observation"
      }
    },
    {
      "fullUrl": "http://example.com/fhir/Observation/heslinga-dan-lab11",
      "resource": {
        "resourceType": "Observation",
        "id": "heslinga-dan-lab11",
        "meta": {
          "profile": [
            "http://hl7.org/fhir/us/example/StructureDefinition/heslinga-dan-labs"
          ]
        },
        "status": "final",
        "category": [
          {
            "coding": [
              {
                "system": "http://terminology.hl7.org/CodeSystem/observation-category",
                "code": "laboratory"
              }
            ]
          }
        ],
        "subject": {
          "reference": "Patient/heslinga-dan",
          "display": "Dan Heslinga"
        },
        "code": {
          "coding": [
            {
              "code": "2857-1",
              "system": "http://loinc.org",
              "display": "Prostate specific Ag [Mass/volume] in Serum or Plasma"
            }
          ]
        },
        "effectiveDateTime": "2021-08-31",
        "valueQuantity": {
          "value": 0.9,
          "code": "ng/dL",
          "system": "http://unitsofmeasure.org",
          "unit": "ng/dL"
        },
        "referenceRange": [
          {
            "text": "0-4.5 ng/mL"
          }
        ],
        "performer": [
          {
            "reference": "Organization/clinical-labs-hawaii"
          }
        ]
      },
      "request": {
        "method": "POST",
        "url": "Observation"
      }
    },
    {
      "fullUrl": "http://example.com/fhir/Observation/heslinga-dan-lab12",
      "resource": {
        "resourceType": "Observation",
        "id": "heslinga-dan-lab12",
        "meta": {
          "profile": [
            "http://hl7.org/fhir/us/example/StructureDefinition/heslinga-dan-labs"
          ]
        },
        "status": "final",
        "category": [
          {
            "coding": [
              {
                "system": "http://terminology.hl7.org/CodeSystem/observation-category",
                "code": "laboratory"
              }
            ]
          }
        ],
        "subject": {
          "reference": "Patient/heslinga-dan",
          "display": "Dan Heslinga"
        },
        "code": {
          "coding": [
            {
              "code": "2857-1",
              "system": "http://loinc.org",
              "display": "Prostate specific Ag [Mass/volume] in Serum or Plasma"
            }
          ]
        },
        "effectiveDateTime": "2019-03-14",
        "valueQuantity": {
          "value": 0.8,
          "code": "ng/mL",
          "system": "http://unitsofmeasure.org",
          "unit": "ng/mL"
        },
        "referenceRange": [
          {
            "text": "0-4.5 ng/mL"
          }
        ],
        "interpretation": [
          {
            "coding": [
              {
                "code": "N",
                "system": "http://terminology.hl7.org/CodeSystem/v3-ObservationInterpretation",
                "display": "Normal"
              }
            ]
          }
        ],
        "performer": [
          {
            "reference": "Organization/clinical-labs-hawaii"
          }
        ]
      },
      "request": {
        "method": "POST",
        "url": "Observation"
      }
    },
    {
      "fullUrl": "http://example.com/fhir/Observation/heslinga-dan-lab13",
      "resource": {
        "resourceType": "Observation",
        "id": "heslinga-dan-lab13",
        "meta": {
          "profile": [
            "http://hl7.org/fhir/us/example/StructureDefinition/heslinga-dan-labs"
          ]
        },
        "status": "final",
        "category": [
          {
            "coding": [
              {
                "system": "http://terminology.hl7.org/CodeSystem/observation-category",
                "code": "laboratory"
              }
            ]
          }
        ],
        "subject": {
          "reference": "Patient/heslinga-dan",
          "display": "Dan Heslinga"
        },
        "code": {
          "coding": [
            {
              "code": "2857-1",
              "system": "http://loinc.org",
              "display": "Prostate specific Ag [Mass/volume] in Serum or Plasma"
            }
          ]
        },
        "effectiveDateTime": "2020-07-28",
        "valueQuantity": {
          "value": 0.8,
          "code": "ng/mL",
          "system": "http://unitsofmeasure.org",
          "unit": "'ng/mL"
        },
        "referenceRange": [
          {
            "text": "0-4.5 ng/mL"
          }
        ],
        "interpretation": [
          {
            "coding": [
              {
                "code": "N",
                "system": "http://terminology.hl7.org/CodeSystem/v3-ObservationInterpretation",
                "display": "Normal"
              }
            ]
          }
        ],
        "performer": [
          {
            "reference": "Organization/clinical-labs-hawaii"
          }
        ]
      },
      "request": {
        "method": "POST",
        "url": "Observation"
      }
    },
    {
      "fullUrl": "http://example.com/fhir/Observation/heslinga-dan-lab14",
      "resource": {
        "resourceType": "Observation",
        "id": "heslinga-dan-lab14",
        "meta": {
          "profile": [
            "http://hl7.org/fhir/us/example/StructureDefinition/heslinga-dan-labs"
          ]
        },
        "status": "final",
        "category": [
          {
            "coding": [
              {
                "system": "http://terminology.hl7.org/CodeSystem/observation-category",
                "code": "laboratory"
              }
            ]
          }
        ],
        "subject": {
          "reference": "Patient/heslinga-dan",
          "display": "Dan Heslinga"
        },
        "code": {
          "coding": [
            {
              "code": "4548-4",
              "system": "http://loinc.org",
              "display": "Hemoglobin A1c/Hemoglobin.total in Blood"
            }
          ]
        },
        "effectiveDateTime": "2019-03-14",
        "valueQuantity": {
          "value": 5.4,
          "code": "%",
          "system": "http://unitsofmeasure.org",
          "unit": "%"
        },
        "referenceRange": [
          {
            "text": "4.0 %-5.6 %"
          }
        ],
        "interpretation": [
          {
            "coding": [
              {
                "code": "N",
                "system": "http://terminology.hl7.org/CodeSystem/v3-ObservationInterpretation",
                "display": "Normal"
              }
            ]
          }
        ],
        "performer": [
          {
            "reference": "Organization/clinical-labs-hawaii"
          }
        ]
      },
      "request": {
        "method": "POST",
        "url": "Observation"
      }
    },
    {
      "fullUrl": "http://example.com/fhir/Observation/heslinga-dan-lab15",
      "resource": {
        "resourceType": "Observation",
        "id": "heslinga-dan-lab15",
        "meta": {
          "profile": [
            "http://hl7.org/fhir/us/example/StructureDefinition/heslinga-dan-labs"
          ]
        },
        "status": "final",
        "category": [
          {
            "coding": [
              {
                "system": "http://terminology.hl7.org/CodeSystem/observation-category",
                "code": "laboratory"
              }
            ]
          }
        ],
        "subject": {
          "reference": "Patient/heslinga-dan",
          "display": "Dan Heslinga"
        },
        "code": {
          "coding": [
            {
              "code": "97097-0",
              "system": "http://loinc.org",
              "display": "SARS-CoV-2 (COVID-19) Ag [Presence] in Upper respiratory specimen by Rapid immunoassay"
            }
          ]
        },
        "effectiveDateTime": "2022-11-01T10:00:00.000Z",
        "valueCodeableConcept": {
          "coding": [
            {
              "code": "260373001",
              "system": "http://snomed.info/sct",
              "display": "Detected"
            }
          ]
        },
        "referenceRange": [
          {
            "text": "Not dectected"
          }
        ],
        "performer": [
          {
            "reference": "Patient/heslinga-dan"
          }
        ],
        "note": [
          {
            "text": "performed by patient at home using iHealth COVID-19 Antigen Rapid Test"
          }
        ]
      },
      "request": {
        "method": "POST",
        "url": "Observation"
      }
    },
    {
      "fullUrl": "http://example.com/fhir/Observation/heslinga-dan-lab16",
      "resource": {
        "resourceType": "Observation",
        "id": "heslinga-dan-lab16",
        "meta": {
          "profile": [
            "http://hl7.org/fhir/us/example/StructureDefinition/heslinga-dan-labs"
          ]
        },
        "status": "final",
        "category": [
          {
            "coding": [
              {
                "system": "http://terminology.hl7.org/CodeSystem/observation-category",
                "code": "laboratory"
              }
            ]
          }
        ],
        "subject": {
          "reference": "Patient/heslinga-dan",
          "display": "Dan Heslinga"
        },
        "code": {
          "coding": [
            {
              "code": "97097-0",
              "system": "http://loinc.org",
              "display": "SARS-CoV-2 (COVID-19) Ag [Presence] in Upper respiratory specimen by Rapid immunoassay"
            }
          ]
        },
        "effectiveDateTime": "2022-11-05T14:19:00.000Z",
        "valueCodeableConcept": {
          "coding": [
            {
              "code": "260373001",
              "system": "http://snomed.info/sct",
              "display": "Detected"
            }
          ]
        },
        "referenceRange": [
          {
            "text": "Not dectected"
          }
        ],
        "performer": [
          {
            "reference": "Patient/heslinga-dan"
          }
        ],
        "note": [
          {
            "text": "performed by patient at home using iHealth COVID-19 Antigen Rapid Test"
          }
        ]
      },
      "request": {
        "method": "POST",
        "url": "Observation"
      }
    },
    {
      "fullUrl": "http://example.com/fhir/MedicationStatement/heslinga-dan-medication0",
      "resource": {
        "resourceType": "MedicationStatement",
        "id": "heslinga-dan-medication0",
        "meta": {
          "profile": [
            "http://hl7.org/fhir/us/example/StructureDefinition/heslinga-dan-medication-statement"
          ]
        },
        "status": "active",
        "subject": {
          "reference": "Patient/heslinga-dan",
          "display": "Dan Heslinga"
        },
        "effectiveDateTime": "2018-08-21",
        "dateAsserted": "2022-11-08",
        "medicationCodeableConcept": {
          "coding": [
            {
              "code": "859751",
              "system": "http://www.nlm.nih.gov/research/umls/rxnorm",
              "display": "rosuvastatin calcium 20 MG Oral Tablet"
            }
          ]
        },
        "informationSource": {
          "reference": "Patient/heslinga-dan",
          "display": "Dan Heslinga"
        },
        "dosage": [
          {
            "text": "Take 1 tablet by mouth every day",
            "timing": {
              "repeat": {
                "frequency": 1,
                "period": 1,
                "periodUnit": "d"
              }
            },
            "asNeededBoolean": false,
            "route": {
              "coding": [
                {
                  "code": "260548002",
                  "system": "http://snomed.info/sct",
                  "display": "Oral"
                }
              ]
            }
          }
        ]
      },
      "request": {
        "method": "POST",
        "url": "MedicationStatement"
      }
    },
    {
      "fullUrl": "http://example.com/fhir/MedicationStatement/heslinga-dan-medication1",
      "resource": {
        "resourceType": "MedicationStatement",
        "id": "heslinga-dan-medication1",
        "meta": {
          "profile": [
            "http://hl7.org/fhir/us/example/StructureDefinition/heslinga-dan-medication-statement"
          ]
        },
        "status": "active",
        "subject": {
          "reference": "Patient/heslinga-dan",
          "display": "Dan Heslinga"
        },
        "effectiveDateTime": "2014-02-26",
        "dateAsserted": "2022-11-08",
        "medicationCodeableConcept": {
          "coding": [
            {
              "code": "314072",
              "system": "http://www.nlm.nih.gov/research/umls/rxnorm",
              "display": "latanoprost 0.005 % Ophthalmic Solution"
            }
          ]
        },
        "informationSource": {
          "reference": "Patient/heslinga-dan",
          "display": "Dan Heslinga"
        },
        "dosage": [
          {
            "text": "Instill 1 drop in both eyes every day in the morning",
            "timing": {
              "repeat": {
                "frequency": 1,
                "period": 1,
                "periodUnit": "d"
              }
            },
            "asNeededBoolean": false,
            "route": {
              "coding": [
                {
                  "code": "54485002",
                  "system": "http://snomed.info/sct",
                  "display": "Ophthalmic route (qualifier value)"
                }
              ]
            }
          }
        ]
      },
      "request": {
        "method": "POST",
        "url": "MedicationStatement"
      }
    },
    {
      "fullUrl": "http://example.com/fhir/MedicationStatement/heslinga-dan-medication2",
      "resource": {
        "resourceType": "MedicationStatement",
        "id": "heslinga-dan-medication2",
        "meta": {
          "profile": [
            "http://hl7.org/fhir/us/example/StructureDefinition/heslinga-dan-medication-statement"
          ]
        },
        "status": "active",
        "subject": {
          "reference": "Patient/heslinga-dan",
          "display": "Dan Heslinga"
        },
        "effectiveDateTime": "2019-03-07",
        "dateAsserted": "2022-11-08",
        "medicationCodeableConcept": {
          "coding": [
            {
              "code": "1992873",
              "system": "http://www.nlm.nih.gov/research/umls/rxnorm",
              "display": "Rhopressa 0.02 % Ophthalmic Solution"
            }
          ]
        },
        "informationSource": {
          "reference": "Patient/heslinga-dan",
          "display": "Dan Heslinga"
        },
        "dosage": [
          {
            "text": "Instill 1 drop both eyes in the evening",
            "timing": {
              "repeat": {
                "frequency": 1,
                "period": 1,
                "periodUnit": "d"
              }
            },
            "asNeededBoolean": false,
            "route": {
              "coding": [
                {
                  "code": "54485002",
                  "system": "http://snomed.info/sct",
                  "display": "Ophthalmic route (qualifier value)"
                }
              ]
            }
          }
        ]
      },
      "request": {
        "method": "POST",
        "url": "MedicationStatement"
      }
    },
    {
      "fullUrl": "http://example.com/fhir/MedicationStatement/heslinga-dan-medication3",
      "resource": {
        "resourceType": "MedicationStatement",
        "id": "heslinga-dan-medication3",
        "meta": {
          "profile": [
            "http://hl7.org/fhir/us/example/StructureDefinition/heslinga-dan-medication-statement"
          ]
        },
        "status": "active",
        "subject": {
          "reference": "Patient/heslinga-dan",
          "display": "Dan Heslinga"
        },
        "effectiveDateTime": "2020-07-25",
        "dateAsserted": "2022-11-08",
        "medicationCodeableConcept": {
          "coding": [
            {
              "code": "315431",
              "system": "http://www.nlm.nih.gov/research/umls/rxnorm",
              "display": "aspirin 81 MG"
            }
          ]
        },
        "informationSource": {
          "reference": "Patient/heslinga-dan",
          "display": "Dan Heslinga"
        },
        "dosage": [
          {
            "text": "Take 1 tablet by mouth every day",
            "timing": {
              "repeat": {
                "frequency": 1,
                "period": 1,
                "periodUnit": "d"
              }
            },
            "asNeededBoolean": false,
            "route": {
              "coding": [
                {
                  "code": "260548002",
                  "system": "http://snomed.info/sct",
                  "display": "Oral"
                }
              ]
            }
          }
        ]
      },
      "request": {
        "method": "POST",
        "url": "MedicationStatement"
      }
    },
    {
      "fullUrl": "http://example.com/fhir/MedicationStatement/heslinga-dan-medication4",
      "resource": {
        "resourceType": "MedicationStatement",
        "id": "heslinga-dan-medication4",
        "meta": {
          "profile": [
            "http://hl7.org/fhir/us/example/StructureDefinition/heslinga-dan-medication-statement"
          ]
        },
        "status": "active",
        "subject": {
          "reference": "Patient/heslinga-dan",
          "display": "Dan Heslinga"
        },
        "effectiveDateTime": "2021-12-18",
        "dateAsserted": "2022-11-08",
        "medicationCodeableConcept": {
          "coding": [
            {
              "code": "316167",
              "system": "http://www.nlm.nih.gov/research/umls/rxnorm",
              "display": "loratadine 10 MG"
            }
          ]
        },
        "informationSource": {
          "reference": "Patient/heslinga-dan",
          "display": "Dan Heslinga"
        },
        "dosage": [
          {
            "text": "Take 1 tablet by mouth every day",
            "timing": {
              "repeat": {
                "frequency": 1,
                "period": 1,
                "periodUnit": "d"
              }
            },
            "asNeededBoolean": false,
            "route": {
              "coding": [
                {
                  "code": "260548002",
                  "system": "http://snomed.info/sct",
                  "display": "Oral"
                }
              ]
            }
          }
        ]
      },
      "request": {
        "method": "POST",
        "url": "MedicationStatement"
      }
    },
    {
      "fullUrl": "http://example.com/fhir/MedicationStatement/heslinga-dan-medication5",
      "resource": {
        "resourceType": "MedicationStatement",
        "id": "heslinga-dan-medication5",
        "meta": {
          "profile": [
            "http://hl7.org/fhir/us/example/StructureDefinition/heslinga-dan-medication-statement"
          ]
        },
        "status": "active",
        "subject": {
          "reference": "Patient/heslinga-dan",
          "display": "Dan Heslinga"
        },
        "effectiveDateTime": "2022-06-18",
        "dateAsserted": "2022-11-08",
        "medicationCodeableConcept": {
          "coding": [
            {
              "code": "360580",
              "system": "http://www.nlm.nih.gov/research/umls/rxnorm",
              "display": "cromolyn sodium 5.2 MG/ACTUAT"
            }
          ]
        },
        "informationSource": {
          "reference": "Patient/heslinga-dan",
          "display": "Dan Heslinga"
        },
        "dosage": [
          {
            "text": "1 spray in each nostril daily",
            "timing": {
              "repeat": {
                "frequency": 1,
                "period": 1,
                "periodUnit": "d"
              }
            },
            "asNeededBoolean": false,
            "route": {
              "coding": [
                {
                  "code": "46713006",
                  "system": "http://snomed.info/sct",
                  "display": "Nasal route (qualifier value)"
                }
              ]
            }
          }
        ]
      },
      "request": {
        "method": "POST",
        "url": "MedicationStatement"
      }
    },
    {
      "fullUrl": "http://example.com/fhir/Organization/adventist-health-castle",
      "resource": {
        "resourceType": "Organization",
        "id": "adventist-health-castle",
        "meta": {
          "profile": [
            "http://hl7.org/fhir/us/core/StructureDefinition/us-core-organization"
          ]
        },
        "active": true,
        "identifier": [
          {
            "system": "http://hl7.org/fhir/sid/us-npi",
            "value": "1235262114"
          }
        ],
        "type": [
          {
            "coding": [
              {
                "code": "prov",
                "system": "http://terminology.hl7.org/CodeSystem/organization-type",
                "display": "Healthcare Provider"
              }
            ]
          }
        ],
        "name": "Adventist Health Castle",
        "address": [
          {
            "city": "Kailua",
            "state": "HI",
            "country": "USA"
          }
        ]
      },
      "request": {
        "method": "POST",
        "url": "Organization"
      }
    },
    {
      "fullUrl": "http://example.com/fhir/Organization/diagnostic-laboratory-services",
      "resource": {
        "resourceType": "Organization",
        "id": "diagnostic-laboratory-services",
        "meta": {
          "profile": [
            "http://hl7.org/fhir/us/core/StructureDefinition/us-core-organization"
          ]
        },
        "active": true,
        "identifier": [
          {
            "system": "http://hl7.org/fhir/sid/us-npi",
            "value": "1215930987"
          }
        ],
        "type": [
          {
            "coding": [
              {
                "code": "prov",
                "system": "http://terminology.hl7.org/CodeSystem/organization-type",
                "display": "Healthcare Provider"
              }
            ]
          }
        ],
        "name": "Diagnostic Laboratory Services",
        "address": [
          {
            "city": "Aiea",
            "state": "HI",
            "country": "USA"
          }
        ]
      },
      "request": {
        "method": "POST",
        "url": "Organization"
      }
    },
    {
      "fullUrl": "http://example.com/fhir/Organization/clinical-labs-hawaii",
      "resource": {
        "resourceType": "Organization",
        "id": "clinical-labs-hawaii",
        "meta": {
          "profile": [
            "http://hl7.org/fhir/us/core/StructureDefinition/us-core-organization"
          ]
        },
        "active": true,
        "identifier": [
          {
            "system": "http://hl7.org/fhir/sid/us-npi",
            "value": "1134195357"
          }
        ],
        "type": [
          {
            "coding": [
              {
                "code": "prov",
                "system": "http://terminology.hl7.org/CodeSystem/organization-type",
                "display": "Healthcare Provider"
              }
            ]
          }
        ],
        "name": "Clinical Labs of Hawaii",
        "address": [
          {
            "city": "Hilo",
            "state": "HI",
            "country": "USA"
          }
        ]
      },
      "request": {
        "method": "POST",
        "url": "Organization"
      }
    },
    {
      "fullUrl": "http://example.com/fhir/Organization/invitae",
      "resource": {
        "resourceType": "Organization",
        "id": "invitae",
        "meta": {
          "profile": [
            "http://hl7.org/fhir/us/core/StructureDefinition/us-core-organization"
          ]
        },
        "active": true,
        "identifier": [
          {
            "system": "http://hl7.org/fhir/sid/us-npi",
            "value": "1316206220"
          }
        ],
        "type": [
          {
            "coding": [
              {
                "code": "prov",
                "system": "http://terminology.hl7.org/CodeSystem/organization-type",
                "display": "Healthcare Provider"
              }
            ]
          }
        ],
        "name": "Invitae Corporation",
        "address": [
          {
            "city": "San Francisco",
            "state": "CA",
            "country": "USA"
          }
        ]
      },
      "request": {
        "method": "POST",
        "url": "Organization"
      }
    },
    {
      "fullUrl": "http://example.com/fhir/Organization/queens-punchbowl",
      "resource": {
        "resourceType": "Organization",
        "id": "queens-punchbowl",
        "meta": {
          "profile": [
            "http://hl7.org/fhir/us/core/StructureDefinition/us-core-organization"
          ]
        },
        "active": true,
        "identifier": [
          {
            "system": "http://hl7.org/fhir/sid/us-npi",
            "value": "1487693586"
          }
        ],
        "type": [
          {
            "coding": [
              {
                "code": "prov",
                "system": "http://terminology.hl7.org/CodeSystem/organization-type",
                "display": "Healthcare Provider"
              }
            ]
          }
        ],
        "name": "The Queens Medical Center Punchbowl",
        "address": [
          {
            "line": [
              "1301 PUNCHBOWL ST"
            ],
            "city": "Honolulu",
            "state": "HI",
            "country": "USA"
          }
        ]
      },
      "request": {
        "method": "POST",
        "url": "Organization"
      }
    },
    {
      "fullUrl": "http://example.com/fhir/Organization/walgreens-beretania",
      "resource": {
        "resourceType": "Organization",
        "id": "walgreens-beretania",
        "meta": {
          "profile": [
            "http://hl7.org/fhir/us/core/StructureDefinition/us-core-organization"
          ]
        },
        "active": true,
        "identifier": [
          {
            "system": "http://hl7.org/fhir/sid/us-npi",
            "value": "1215292438"
          }
        ],
        "type": [
          {
            "coding": [
              {
                "code": "prov",
                "system": "http://terminology.hl7.org/CodeSystem/organization-type",
                "display": "Healthcare Provider"
              }
            ]
          }
        ],
        "name": "Walgreens Beretania",
        "address": [
          {
            "line": [
              "1121 S BERETANIA ST"
            ],
            "city": "Honolulu",
            "state": "HI",
            "postalCode": "96814",
            "country": "USA"
          }
        ]
      },
      "request": {
        "method": "POST",
        "url": "Organization"
      }
    },
    {
      "fullUrl": "http://example.com/fhir/Organization/straub-clinic",
      "resource": {
        "resourceType": "Organization",
        "id": "straub-clinic",
        "meta": {
          "profile": [
            "http://hl7.org/fhir/us/core/StructureDefinition/us-core-organization"
          ]
        },
        "active": true,
        "identifier": [
          {
            "system": "http://hl7.org/fhir/sid/us-npi",
            "value": "1295443216"
          }
        ],
        "type": [
          {
            "coding": [
              {
                "code": "prov",
                "system": "http://terminology.hl7.org/CodeSystem/organization-type",
                "display": "Healthcare Provider"
              }
            ]
          }
        ],
        "name": "Straub Clinical & Hospital",
        "address": [
          {
            "city": "Honolulu",
            "state": "HI",
            "postalCode": "96826",
            "country": "USA"
          }
        ]
      },
      "request": {
        "method": "POST",
        "url": "Organization"
      }
    },
    {
      "fullUrl": "http://example.com/fhir/Organization/longs-manoa",
      "resource": {
        "resourceType": "Organization",
        "id": "longs-manoa",
        "meta": {
          "profile": [
            "http://hl7.org/fhir/us/core/StructureDefinition/us-core-organization"
          ]
        },
        "active": true,
        "identifier": [
          {
            "system": "http://hl7.org/fhir/sid/us-npi",
            "value": "1063455822"
          }
        ],
        "type": [
          {
            "coding": [
              {
                "code": "prov",
                "system": "http://terminology.hl7.org/CodeSystem/organization-type",
                "display": "Healthcare Provider"
              }
            ]
          }
        ],
        "name": "Longs Manoa",
        "address": [
          {
            "line": [
              "2750 WOODLAWN DR"
            ],
            "city": "Honolulu",
            "state": "HI",
            "postalCode": "96822",
            "country": "USA"
          }
        ]
      },
      "request": {
        "method": "POST",
        "url": "Organization"
      }
    },
    {
      "fullUrl": "http://example.com/fhir/Organization/walgreens-kaneohe",
      "resource": {
        "resourceType": "Organization",
        "id": "walgreens-kaneohe",
        "meta": {
          "profile": [
            "http://hl7.org/fhir/us/core/StructureDefinition/us-core-organization"
          ]
        },
        "active": true,
        "identifier": [
          {
            "system": "http://hl7.org/fhir/sid/us-npi",
            "value": "1831346154"
          }
        ],
        "type": [
          {
            "coding": [
              {
                "code": "prov",
                "system": "http://terminology.hl7.org/CodeSystem/organization-type",
                "display": "Healthcare Provider"
              }
            ]
          }
        ],
        "name": "Walgreens Kaneohe",
        "address": [
          {
            "line": [
              "46-021 KAMEHAMEHA HWY"
            ],
            "city": "Kaneohe",
            "state": "HI",
            "postalCode": "96844",
            "country": "USA"
          }
        ]
      },
      "request": {
        "method": "POST",
        "url": "Organization"
      }
    },
    {
      "fullUrl": "http://example.com/fhir/Procedure/heslinga-dan-procedure0",
      "resource": {
        "resourceType": "Procedure",
        "id": "heslinga-dan-procedure0",
        "meta": {
          "profile": [
            "http://hl7.org/fhir/us/example/StructureDefinition/dh-procedure"
          ]
        },
        "status": "completed",
        "subject": {
          "reference": "Patient/heslinga-dan",
          "display": "Dan Heslinga"
        },
        "code": {
          "coding": [
            {
              "code": "736719000",
              "system": "http://snomed.info/sct",
              "display": "Repair of left inguinal hernia (procedure)"
            }
          ]
        },
        "category": {
          "coding": [
            {
              "code": "387713003",
              "system": "http://snomed.info/sct",
              "display": "Surgical procedure (procedure)"
            }
          ]
        },
        "bodySite": [
          {
            "coding": [
              {
                "code": "26893007",
                "system": "http://snomed.info/sct",
                "display": "Inguinal region structure (body structure)"
              }
            ]
          }
        ],
        "performedString": "As a toddler",
        "outcome": {
          "coding": [
            {
              "code": "385669000",
              "system": "http://snomed.info/sct",
              "display": "Successful (qualifier value)"
            }
          ]
        },
        "performer": [
          {
            "actor": {
              "reference": "Practitioner/campbell-keith"
            }
          }
        ]
      },
      "request": {
        "method": "POST",
        "url": "Procedure"
      }
    },
    {
      "fullUrl": "http://example.com/fhir/Procedure/heslinga-dan-procedure1",
      "resource": {
        "resourceType": "Procedure",
        "id": "heslinga-dan-procedure1",
        "meta": {
          "profile": [
            "http://hl7.org/fhir/us/example/StructureDefinition/dh-procedure"
          ]
        },
        "status": "completed",
        "subject": {
          "reference": "Patient/heslinga-dan",
          "display": "Dan Heslinga"
        },
        "code": {
          "coding": [
            {
              "code": "736720006",
              "system": "http://snomed.info/sct",
              "display": "Repair of right inguinal hernia (procedure)"
            }
          ]
        },
        "category": {
          "coding": [
            {
              "code": "387713003",
              "system": "http://snomed.info/sct",
              "display": "Surgical procedure (procedure)"
            }
          ]
        },
        "bodySite": [
          {
            "coding": [
              {
                "code": "26893007",
                "system": "http://snomed.info/sct",
                "display": "Inguinal region structure (body structure)"
              }
            ]
          }
        ],
        "performedString": "As a toddler",
        "outcome": {
          "coding": [
            {
              "code": "385669000",
              "system": "http://snomed.info/sct",
              "display": "Successful (qualifier value)"
            }
          ]
        },
        "performer": [
          {
            "actor": {
              "reference": "Practitioner/campbell-keith"
            }
          }
        ]
      },
      "request": {
        "method": "POST",
        "url": "Procedure"
      }
    },
    {
      "fullUrl": "http://example.com/fhir/Procedure/heslinga-dan-procedure2",
      "resource": {
        "resourceType": "Procedure",
        "id": "heslinga-dan-procedure2",
        "meta": {
          "profile": [
            "http://hl7.org/fhir/us/example/StructureDefinition/dh-procedure"
          ]
        },
        "status": "completed",
        "subject": {
          "reference": "Patient/heslinga-dan",
          "display": "Dan Heslinga"
        },
        "code": {
          "coding": [
            {
              "code": "22523008",
              "system": "http://snomed.info/sct",
              "display": "Vasectomy (procedure)"
            }
          ]
        },
        "category": {
          "coding": [
            {
              "code": "387713003",
              "system": "http://snomed.info/sct",
              "display": "Surgical procedure (procedure)"
            }
          ]
        },
        "bodySite": [
          {
            "coding": [
              {
                "code": "57671007",
                "system": "http://snomed.info/sct",
                "display": "Vas deferens structure (body structure)"
              }
            ]
          }
        ],
        "performedString": "shortly after 1994",
        "outcome": {
          "coding": [
            {
              "code": "385669000",
              "system": "http://snomed.info/sct",
              "display": "Successful (qualifier value)"
            }
          ]
        },
        "performer": [
          {
            "actor": {
              "reference": "Practitioner/kuchenbecker-david"
            }
          }
        ]
      },
      "request": {
        "method": "POST",
        "url": "Procedure"
      }
    },
    {
      "fullUrl": "http://example.com/fhir/Procedure/heslinga-dan-procedure3",
      "resource": {
        "resourceType": "Procedure",
        "id": "heslinga-dan-procedure3",
        "meta": {
          "profile": [
            "http://hl7.org/fhir/us/example/StructureDefinition/dh-procedure"
          ]
        },
        "status": "completed",
        "subject": {
          "reference": "Patient/heslinga-dan",
          "display": "Dan Heslinga"
        },
        "code": {
          "coding": [
            {
              "code": "171841007",
              "system": "http://snomed.info/sct",
              "display": "Endoscopic carpal tunnel release (procedure)"
            }
          ]
        },
        "category": {
          "coding": [
            {
              "code": "387713003",
              "system": "http://snomed.info/sct",
              "display": "Surgical procedure (procedure)"
            }
          ]
        },
        "bodySite": [
          {
            "coding": [
              {
                "code": "5951000",
                "system": "http://snomed.info/sct",
                "display": "Structure of left wrist region (body structure)"
              }
            ]
          }
        ],
        "performedDateTime": "2019-03-27",
        "outcome": {
          "coding": [
            {
              "code": "385669000",
              "system": "http://snomed.info/sct",
              "display": "Successful (qualifier value)"
            }
          ]
        },
        "performer": [
          {
            "actor": {
              "reference": "Practitioner/blum-gary"
            }
          }
        ]
      },
      "request": {
        "method": "POST",
        "url": "Procedure"
      }
    },
    {
      "fullUrl": "http://example.com/fhir/Procedure/heslinga-dan-procedure4",
      "resource": {
        "resourceType": "Procedure",
        "id": "heslinga-dan-procedure4",
        "meta": {
          "profile": [
            "http://hl7.org/fhir/us/example/StructureDefinition/dh-procedure"
          ]
        },
        "status": "completed",
        "subject": {
          "reference": "Patient/heslinga-dan",
          "display": "Dan Heslinga"
        },
        "code": {
          "coding": [
            {
              "code": "385468004",
              "system": "http://snomed.info/sct",
              "display": "Cataract extraction and insertion of intraocular lens (procedure)"
            }
          ]
        },
        "category": {
          "coding": [
            {
              "code": "387713003",
              "system": "http://snomed.info/sct",
              "display": "Surgical procedure (procedure)"
            }
          ]
        },
        "bodySite": [
          {
            "coding": [
              {
                "code": "18944008",
                "system": "http://snomed.info/sct",
                "display": "Right eye structure (body structure)"
              }
            ]
          }
        ],
        "performedDateTime": "2020-02-03",
        "outcome": {
          "coding": [
            {
              "code": "385669000",
              "system": "http://snomed.info/sct",
              "display": "Successful (qualifier value)"
            }
          ]
        },
        "performer": [
          {
            "actor": {
              "reference": "Practitioner/tokunaga-jason"
            }
          }
        ]
      },
      "request": {
        "method": "POST",
        "url": "Procedure"
      }
    },
    {
      "fullUrl": "http://example.com/fhir/Observation/heslinga-dan-smoking-status0",
      "resource": {
        "resourceType": "Observation",
        "id": "heslinga-dan-smoking-status0",
        "meta": {
          "profile": [
            "http://hl7.org/fhir/us/core/StructureDefinition/us-core-smokingstatus"
          ]
        },
        "category": [
          {
            "coding": [
              {
                "system": "http://terminology.hl7.org/CodeSystem/observation-category",
                "code": "social-history",
                "display": "Social History"
              }
            ]
          }
        ],
        "subject": {
          "reference": "Patient/heslinga-dan",
          "display": "Dan Heslinga"
        },
        "status": "final",
        "code": {
          "coding": [
            {
              "code": "72166-2",
              "system": "http://loinc.org",
              "display": "Tobacco smoking status"
            }
          ],
          "text": "Tobacco smoking status"
        },
        "effectiveDateTime": "2022-02-16",
        "valueCodeableConcept": {
          "coding": [
            {
              "code": "266919005",
              "system": "http://snomed.info/sct"
            }
          ],
          "text": "Never smoked tobacco (finding)"
        }
      },
      "request": {
        "method": "POST",
        "url": "Observation"
      }
    },
    {
      "fullUrl": "http://example.com/fhir/Practitioner/campbell-keith",
      "resource": {
        "resourceType": "Practitioner",
        "id": "campbell-keith",
        "active": true,
        "name": [
          {
            "use": "official",
            "family": "Campbell",
            "given": [
              "Keith"
            ]
          }
        ]
      },
      "request": {
        "method": "POST",
        "url": "Practitioner"
      }
    },
    {
      "fullUrl": "http://example.com/fhir/Practitioner/tsai-naoki",
      "resource": {
        "resourceType": "Practitioner",
        "id": "tsai-naoki",
        "active": true,
        "name": [
          {
            "use": "official",
            "family": "Tsai",
            "given": [
              "Naoki"
            ]
          }
        ]
      },
      "request": {
        "method": "POST",
        "url": "Practitioner"
      }
    },
    {
      "fullUrl": "http://example.com/fhir/Practitioner/tokunaga-jason",
      "resource": {
        "resourceType": "Practitioner",
        "id": "tokunaga-jason",
        "active": true,
        "name": [
          {
            "use": "official",
            "family": "Tokunaga",
            "given": [
              "Jason"
            ]
          }
        ]
      },
      "request": {
        "method": "POST",
        "url": "Practitioner"
      }
    },
    {
      "fullUrl": "http://example.com/fhir/Practitioner/blum-gary",
      "resource": {
        "resourceType": "Practitioner",
        "id": "blum-gary",
        "active": true,
        "name": [
          {
            "use": "official",
            "family": "Blum",
            "given": [
              "Gary"
            ]
          }
        ]
      },
      "request": {
        "method": "POST",
        "url": "Practitioner"
      }
    },
    {
      "fullUrl": "http://example.com/fhir/Practitioner/kuchenbecker-david",
      "resource": {
        "resourceType": "Practitioner",
        "id": "kuchenbecker-david",
        "active": true,
        "name": [
          {
            "use": "official",
            "family": "Kuchenbecker",
            "given": [
              "David"
            ]
          }
        ]
      },
      "request": {
        "method": "POST",
        "url": "Practitioner"
      }
    },
    {
      "fullUrl": "http://example.com/fhir/Observation/colon-hyperplastic-polyp",
      "resource": {
        "resourceType": "Observation",
        "id": "colon-hyperplastic-polyp",
        "meta": {
          "profile": [
            "http://hl7.org/fhir/us/example/StructureDefinition/heslinga-dan-clinical-result"
          ]
        },
        "status": "final",
        "subject": {
          "reference": "Patient/heslinga-dan",
          "display": "Dan Heslinga"
        },
        "category": [
          {
            "coding": [
              {
                "code": "LP7839-6",
                "system": "http://loinc.org",
                "display": "Pathology"
              }
            ]
          }
        ],
        "code": {
          "coding": [
            {
              "code": "34574-4",
              "system": "http://loinc.org",
              "display": "Pathology report final diagnosis"
            }
          ]
        },
        "valueCodeableConcept": {
          "coding": [
            {
              "code": "89452002",
              "system": "http://snomed.info/sct",
              "display": "Hyperplastic polyp of intestine (disorder)"
            }
          ]
        }
      },
      "request": {
        "method": "POST",
        "url": "Observation"
      }
    },
    {
      "fullUrl": "http://example.com/fhir/Observation/colon-tubular-adenoma",
      "resource": {
        "resourceType": "Observation",
        "id": "colon-tubular-adenoma",
        "meta": {
          "profile": [
            "http://hl7.org/fhir/us/example/StructureDefinition/heslinga-dan-clinical-result"
          ]
        },
        "status": "final",
        "subject": {
          "reference": "Patient/heslinga-dan",
          "display": "Dan Heslinga"
        },
        "category": [
          {
            "coding": [
              {
                "code": "LP7839-6",
                "system": "http://loinc.org",
                "display": "Pathology"
              }
            ]
          }
        ],
        "code": {
          "coding": [
            {
              "code": "34574-4",
              "system": "http://loinc.org",
              "display": "Pathology report final diagnosis"
            }
          ]
        },
        "valueCodeableConcept": {
          "coding": [
            {
              "code": "444408007",
              "system": "http://snomed.info/sct",
              "display": "Tubular adenoma (disorder)"
            }
          ]
        }
      },
      "request": {
        "method": "POST",
        "url": "Observation"
      }
    },
    {
      "fullUrl": "http://example.com/fhir/Observation/colon-mucosal-fold",
      "resource": {
        "resourceType": "Observation",
        "id": "colon-mucosal-fold",
        "meta": {
          "profile": [
            "http://hl7.org/fhir/us/example/StructureDefinition/heslinga-dan-clinical-result"
          ]
        },
        "status": "final",
        "subject": {
          "reference": "Patient/heslinga-dan",
          "display": "Dan Heslinga"
        },
        "category": [
          {
            "coding": [
              {
                "code": "LP7839-6",
                "system": "http://loinc.org",
                "display": "Pathology"
              }
            ]
          }
        ],
        "code": {
          "coding": [
            {
              "code": "34574-4",
              "system": "http://loinc.org",
              "display": "Pathology report final diagnosis"
            }
          ]
        },
        "valueCodeableConcept": {
          "coding": [
            {
              "code": "68534000",
              "system": "http://snomed.info/sct",
              "display": "Intestinal mucous membrane structure (body structure)"
            }
          ]
        }
      },
      "request": {
        "method": "POST",
        "url": "Observation"
      }
    },
    {
      "fullUrl": "http://example.com/fhir/Observation/colon-sessile-serrated-polyp",
      "resource": {
        "resourceType": "Observation",
        "id": "colon-sessile-serrated-polyp",
        "meta": {
          "profile": [
            "http://hl7.org/fhir/us/example/StructureDefinition/heslinga-dan-clinical-result"
          ]
        },
        "status": "final",
        "subject": {
          "reference": "Patient/heslinga-dan",
          "display": "Dan Heslinga"
        },
        "category": [
          {
            "coding": [
              {
                "code": "LP7839-6",
                "system": "http://loinc.org",
                "display": "Pathology"
              }
            ]
          }
        ],
        "code": {
          "coding": [
            {
              "code": "34574-4",
              "system": "http://loinc.org",
              "display": "Pathology report final diagnosis"
            }
          ]
        },
        "valueCodeableConcept": {
          "coding": [
            {
              "code": "1230009008",
              "system": "http://snomed.info/sct",
              "display": "Sessile serrated polyp of colon (disorder)"
            }
          ]
        }
      },
      "request": {
        "method": "POST",
        "url": "Observation"
      }
    },
    {
      "fullUrl": "http://example.com/fhir/Observation/colon-benign-lymphoid-polyp",
      "resource": {
        "resourceType": "Observation",
        "id": "colon-benign-lymphoid-polyp",
        "meta": {
          "profile": [
            "http://hl7.org/fhir/us/example/StructureDefinition/heslinga-dan-clinical-result"
          ]
        },
        "status": "final",
        "subject": {
          "reference": "Patient/heslinga-dan",
          "display": "Dan Heslinga"
        },
        "category": [
          {
            "coding": [
              {
                "code": "LP7839-6",
                "system": "http://loinc.org",
                "display": "Pathology"
              }
            ]
          }
        ],
        "code": {
          "coding": [
            {
              "code": "34574-4",
              "system": "http://loinc.org",
              "display": "Pathology report final diagnosis"
            }
          ]
        },
        "valueCodeableConcept": {
          "coding": [
            {
              "code": "721692006",
              "system": "http://snomed.info/sct",
              "display": "Benign lymphoid polyp of large intestine (disorder)"
            }
          ]
        }
      },
      "request": {
        "method": "POST",
        "url": "Observation"
      }
    },
    {
      "fullUrl": "http://example.com/fhir/Observation/colon-polyp-piecemeal-excision-false",
      "resource": {
        "resourceType": "Observation",
        "id": "colon-polyp-piecemeal-excision-false",
        "meta": {
          "profile": [
            "http://hl7.org/fhir/us/example/StructureDefinition/heslinga-dan-clinical-result"
          ]
        },
        "status": "final",
        "subject": {
          "reference": "Patient/heslinga-dan",
          "display": "Dan Heslinga"
        },
        "category": [
          {
            "coding": [
              {
                "code": "LP7839-6",
                "system": "http://loinc.org",
                "display": "Pathology"
              }
            ]
          }
        ],
        "code": {
          "coding": [
            {
              "code": "787139004",
              "system": "http://snomed.info/sct",
              "display": "Piecemeal excision"
            }
          ]
        },
        "valueBoolean": false
      },
      "request": {
        "method": "POST",
        "url": "Observation"
      }
    },
    {
      "fullUrl": "http://example.com/fhir/Observation/colon-polyp-piecemeal-excision-true",
      "resource": {
        "resourceType": "Observation",
        "id": "colon-polyp-piecemeal-excision-true",
        "meta": {
          "profile": [
            "http://hl7.org/fhir/us/example/StructureDefinition/heslinga-dan-clinical-result"
          ]
        },
        "status": "final",
        "subject": {
          "reference": "Patient/heslinga-dan",
          "display": "Dan Heslinga"
        },
        "category": [
          {
            "coding": [
              {
                "code": "LP7839-6",
                "system": "http://loinc.org",
                "display": "Pathology"
              }
            ]
          }
        ],
        "code": {
          "coding": [
            {
              "code": "787139004",
              "system": "http://snomed.info/sct",
              "display": "Piecemeal excision"
            }
          ]
        },
        "valueBoolean": true
      },
      "request": {
        "method": "POST",
        "url": "Observation"
      }
    },
    {
      "fullUrl": "http://example.com/fhir/Observation/colon-polyp-severe-dysplasia-false",
      "resource": {
        "resourceType": "Observation",
        "id": "colon-polyp-severe-dysplasia-false",
        "meta": {
          "profile": [
            "http://hl7.org/fhir/us/example/StructureDefinition/heslinga-dan-clinical-result"
          ]
        },
        "status": "final",
        "subject": {
          "reference": "Patient/heslinga-dan",
          "display": "Dan Heslinga"
        },
        "category": [
          {
            "coding": [
              {
                "code": "LP7839-6",
                "system": "http://loinc.org",
                "display": "Pathology"
              }
            ]
          }
        ],
        "code": {
          "coding": [
            {
              "code": "55237006",
              "system": "http://snomed.info/sct",
              "display": "Severe dysplasia (morphologic abnormality)"
            }
          ]
        },
        "valueBoolean": false
      },
      "request": {
        "method": "POST",
        "url": "Observation"
      }
    },
    {
      "fullUrl": "http://example.com/fhir/Observation/colon-polyp-severe-dysplasia-true",
      "resource": {
        "resourceType": "Observation",
        "id": "colon-polyp-severe-dysplasia-true",
        "meta": {
          "profile": [
            "http://hl7.org/fhir/us/example/StructureDefinition/heslinga-dan-clinical-result"
          ]
        },
        "status": "final",
        "subject": {
          "reference": "Patient/heslinga-dan",
          "display": "Dan Heslinga"
        },
        "category": [
          {
            "coding": [
              {
                "code": "LP7839-6",
                "system": "http://loinc.org",
                "display": "Pathology"
              }
            ]
          }
        ],
        "code": {
          "coding": [
            {
              "code": "55237006",
              "system": "http://snomed.info/sct",
              "display": "Severe dysplasia (morphologic abnormality)"
            }
          ]
        },
        "valueBoolean": true
      },
      "request": {
        "method": "POST",
        "url": "Observation"
      }
    },
    {
      "fullUrl": "http://example.com/fhir/Observation/colon-polyp-no-evidence-of-malignant-neoplasm-true",
      "resource": {
        "resourceType": "Observation",
        "id": "colon-polyp-no-evidence-of-malignant-neoplasm-true",
        "meta": {
          "profile": [
            "http://hl7.org/fhir/us/example/StructureDefinition/heslinga-dan-clinical-result"
          ]
        },
        "status": "final",
        "subject": {
          "reference": "Patient/heslinga-dan",
          "display": "Dan Heslinga"
        },
        "category": [
          {
            "coding": [
              {
                "code": "LP7839-6",
                "system": "http://loinc.org",
                "display": "Pathology"
              }
            ]
          }
        ],
        "code": {
          "coding": [
            {
              "code": "110396000",
              "system": "http://snomed.info/sct",
              "display": "No evidence of malignant neoplasm (finding)"
            }
          ]
        },
        "valueBoolean": true
      },
      "request": {
        "method": "POST",
        "url": "Observation"
      }
    },
    {
      "fullUrl": "http://example.com/fhir/Observation/colon-polyp-no-evidence-of-malignant-neoplasm-false",
      "resource": {
        "resourceType": "Observation",
        "id": "colon-polyp-no-evidence-of-malignant-neoplasm-false",
        "meta": {
          "profile": [
            "http://hl7.org/fhir/us/example/StructureDefinition/heslinga-dan-clinical-result"
          ]
        },
        "status": "final",
        "subject": {
          "reference": "Patient/heslinga-dan",
          "display": "Dan Heslinga"
        },
        "category": [
          {
            "coding": [
              {
                "code": "LP7839-6",
                "system": "http://loinc.org",
                "display": "Pathology"
              }
            ]
          }
        ],
        "code": {
          "coding": [
            {
              "code": "110396000",
              "system": "http://snomed.info/sct",
              "display": "No evidence of malignant neoplasm (finding)"
            }
          ]
        },
        "valueBoolean": false
      },
      "request": {
        "method": "POST",
        "url": "Observation"
      }
    },
    {
      "fullUrl": "http://example.com/fhir/DiagnosticReport/heslinga-dan-diagnostic-report0",
      "resource": {
        "resourceType": "DiagnosticReport",
        "id": "heslinga-dan-diagnostic-report0",
        "meta": {
          "profile": [
            "http://hl7.org/fhir/us/example/StructureDefinition/DHDiagnosticReport"
          ]
        },
        "subject": {
          "reference": "Patient/heslinga-dan",
          "display": "Dan Heslinga"
        },
        "code": {
          "coding": [
            {
              "code": "11502-2",
              "system": "http://loinc.org",
              "display": "Histopathology report"
            }
          ]
        },
        "category": [
          {
            "coding": [
              {
                "code": "LP7839-6",
                "system": "http://loinc.org",
                "display": "Pathology"
              }
            ]
          }
        ],
        "effectiveDateTime": "2011-07-12",
        "performer": [
          {
            "reference": "Organization/adventist-health-castle"
          }
        ],
        "status": "final",
        "result": [
          {
            "reference": "Observation/colon-biopsy-result-0"
          },
          {
            "reference": "Observation/colon-biopsy-result-1"
          },
          {
            "reference": "Observation/colon-biopsy-result-2"
          },
          {
            "reference": "Observation/colon-biopsy-result-3"
          },
          {
            "reference": "Observation/colon-biopsy-result-4"
          },
          {
            "reference": "Observation/colon-biopsy-result-5"
          }
        ]
      },
      "request": {
        "method": "POST",
        "url": "DiagnosticReport"
      }
    },
    {
      "fullUrl": "http://example.com/fhir/Observation/colon-biopsy-result-0",
      "resource": {
        "resourceType": "Observation",
        "id": "colon-biopsy-result-0",
        "meta": {
          "profile": [
            "http://hl7.org/fhir/us/example/StructureDefinition/heslinga-dan-colon-biopsy-result"
          ]
        },
        "status": "final",
        "category": [
          {
            "coding": [
              {
                "code": "LP7839-6",
                "system": "http://loinc.org",
                "display": "Pathology"
              }
            ]
          }
        ],
        "code": {
          "coding": [
            {
              "code": "11502-2",
              "system": "http://loinc.org",
              "display": "Histopathology report"
            }
          ]
        },
        "subject": {
          "reference": "Patient/heslinga-dan",
          "display": "Dan Heslinga"
        },
        "hasMember": [
          {
            "reference": "Observation/colon-hyperplastic-polyp"
          },
          {
            "reference": "Observation/colon-polyp-piecemeal-excision-false"
          },
          {
            "reference": "Observation/colon-polyp-severe-dysplasia-false"
          },
          {
            "reference": "Observation/colon-polyp-no-evidence-of-malignant-neoplasm-true"
          }
        ]
      },
      "request": {
        "method": "POST",
        "url": "Observation"
      }
    },
    {
      "fullUrl": "http://example.com/fhir/Observation/colon-biopsy-result-1",
      "resource": {
        "resourceType": "Observation",
        "id": "colon-biopsy-result-1",
        "meta": {
          "profile": [
            "http://hl7.org/fhir/us/example/StructureDefinition/heslinga-dan-colon-biopsy-result"
          ]
        },
        "status": "final",
        "category": [
          {
            "coding": [
              {
                "code": "LP7839-6",
                "system": "http://loinc.org",
                "display": "Pathology"
              }
            ]
          }
        ],
        "code": {
          "coding": [
            {
              "code": "11502-2",
              "system": "http://loinc.org",
              "display": "Histopathology report"
            }
          ]
        },
        "subject": {
          "reference": "Patient/heslinga-dan",
          "display": "Dan Heslinga"
        },
        "hasMember": [
          {
            "reference": "Observation/colon-tubular-adenoma"
          },
          {
            "reference": "Observation/colon-polyp-piecemeal-excision-false"
          },
          {
            "reference": "Observation/colon-polyp-severe-dysplasia-false"
          },
          {
            "reference": "Observation/colon-polyp-no-evidence-of-malignant-neoplasm-true"
          }
        ]
      },
      "request": {
        "method": "POST",
        "url": "Observation"
      }
    },
    {
      "fullUrl": "http://example.com/fhir/Observation/colon-biopsy-result-2",
      "resource": {
        "resourceType": "Observation",
        "id": "colon-biopsy-result-2",
        "meta": {
          "profile": [
            "http://hl7.org/fhir/us/example/StructureDefinition/heslinga-dan-colon-biopsy-result"
          ]
        },
        "status": "final",
        "category": [
          {
            "coding": [
              {
                "code": "LP7839-6",
                "system": "http://loinc.org",
                "display": "Pathology"
              }
            ]
          }
        ],
        "code": {
          "coding": [
            {
              "code": "11502-2",
              "system": "http://loinc.org",
              "display": "Histopathology report"
            }
          ]
        },
        "subject": {
          "reference": "Patient/heslinga-dan",
          "display": "Dan Heslinga"
        },
        "hasMember": [
          {
            "reference": "Observation/colon-tubular-adenoma"
          },
          {
            "reference": "Observation/colon-polyp-piecemeal-excision-false"
          },
          {
            "reference": "Observation/colon-polyp-severe-dysplasia-false"
          },
          {
            "reference": "Observation/colon-polyp-no-evidence-of-malignant-neoplasm-true"
          }
        ]
      },
      "request": {
        "method": "POST",
        "url": "Observation"
      }
    },
    {
      "fullUrl": "http://example.com/fhir/Observation/colon-biopsy-result-3",
      "resource": {
        "resourceType": "Observation",
        "id": "colon-biopsy-result-3",
        "meta": {
          "profile": [
            "http://hl7.org/fhir/us/example/StructureDefinition/heslinga-dan-colon-biopsy-result"
          ]
        },
        "status": "final",
        "category": [
          {
            "coding": [
              {
                "code": "LP7839-6",
                "system": "http://loinc.org",
                "display": "Pathology"
              }
            ]
          }
        ],
        "code": {
          "coding": [
            {
              "code": "11502-2",
              "system": "http://loinc.org",
              "display": "Histopathology report"
            }
          ]
        },
        "subject": {
          "reference": "Patient/heslinga-dan",
          "display": "Dan Heslinga"
        },
        "hasMember": [
          {
            "reference": "Observation/colon-tubular-adenoma"
          },
          {
            "reference": "Observation/colon-polyp-piecemeal-excision-false"
          },
          {
            "reference": "Observation/colon-polyp-severe-dysplasia-false"
          },
          {
            "reference": "Observation/colon-polyp-no-evidence-of-malignant-neoplasm-true"
          }
        ]
      },
      "request": {
        "method": "POST",
        "url": "Observation"
      }
    },
    {
      "fullUrl": "http://example.com/fhir/Observation/colon-biopsy-result-4",
      "resource": {
        "resourceType": "Observation",
        "id": "colon-biopsy-result-4",
        "meta": {
          "profile": [
            "http://hl7.org/fhir/us/example/StructureDefinition/heslinga-dan-colon-biopsy-result"
          ]
        },
        "status": "final",
        "category": [
          {
            "coding": [
              {
                "code": "LP7839-6",
                "system": "http://loinc.org",
                "display": "Pathology"
              }
            ]
          }
        ],
        "code": {
          "coding": [
            {
              "code": "11502-2",
              "system": "http://loinc.org",
              "display": "Histopathology report"
            }
          ]
        },
        "subject": {
          "reference": "Patient/heslinga-dan",
          "display": "Dan Heslinga"
        },
        "hasMember": [
          {
            "reference": "Observation/colon-tubular-adenoma"
          },
          {
            "reference": "Observation/colon-polyp-piecemeal-excision-false"
          },
          {
            "reference": "Observation/colon-polyp-severe-dysplasia-false"
          },
          {
            "reference": "Observation/colon-polyp-no-evidence-of-malignant-neoplasm-true"
          }
        ]
      },
      "request": {
        "method": "POST",
        "url": "Observation"
      }
    },
    {
      "fullUrl": "http://example.com/fhir/Observation/colon-biopsy-result-5",
      "resource": {
        "resourceType": "Observation",
        "id": "colon-biopsy-result-5",
        "meta": {
          "profile": [
            "http://hl7.org/fhir/us/example/StructureDefinition/heslinga-dan-colon-biopsy-result"
          ]
        },
        "status": "final",
        "category": [
          {
            "coding": [
              {
                "code": "LP7839-6",
                "system": "http://loinc.org",
                "display": "Pathology"
              }
            ]
          }
        ],
        "code": {
          "coding": [
            {
              "code": "11502-2",
              "system": "http://loinc.org",
              "display": "Histopathology report"
            }
          ]
        },
        "subject": {
          "reference": "Patient/heslinga-dan",
          "display": "Dan Heslinga"
        },
        "hasMember": [
          {
            "reference": "Observation/colon-mucosal-fold"
          },
          {
            "reference": "Observation/colon-polyp-piecemeal-excision-false"
          },
          {
            "reference": "Observation/colon-polyp-severe-dysplasia-false"
          },
          {
            "reference": "Observation/colon-polyp-no-evidence-of-malignant-neoplasm-true"
          }
        ]
      },
      "request": {
        "method": "POST",
        "url": "Observation"
      }
    }
  ]
}
